{
    "resourceType": "Bundle",
    "totalResults": 21,
    "entry": [
        {
            "id": "AdverseReaction/611f586c-57c1-4697-bcf2-6114eca1e6c9",
            "content": {
                "resourceType": "AdverseReaction",
                "symptom": [
                    {
                        "code": {
                            "coding": [
                                {
                                    "system": "http://snomed.info/sct",
                                    "code": "247472004",
                                    "display": "Hives"
                                }
                            ],
                            "text": "Hives"
                        }
                    }
                ],
                "didNotOccurFlag": false
            }
        },
        {
            "id": "AllergyIntolerance/cdf8ba6c-c226-4469-b789-965806e65f20",
            "content": {
                "resourceType": "AllergyIntolerance",
                "sensitivityType": "allergy",
                "recordedDate": "1998-01-10",
                "status": "confirmed",
                "contained": [
                    {
                        "id": "allergen",
                        "resourceType": "Substance",
                        "type": {
                            "coding": [
                                {
                                    "system": "http://www.nlm.nih.gov/research/umls/rxnorm",
                                    "code": "7982",
                                    "display": "Penicillin G benzathine"
                                }
                            ],
                            "text": "Penicillin G benzathine"
                        }
                    }
                ],
                "substance": {
                    "reference": "#allergen",
                    "display": "Penicillin G benzathine"
                },
                "reaction": [
                    {
                        "reference": "AdverseReaction/611f586c-57c1-4697-bcf2-6114eca1e6c9",
                        "display": "Hives"
                    }
                ]
            }
        },
        {
            "id": "AdverseReaction/cb74c18b-32b5-453c-898f-808a41df7b79",
            "content": {
                "resourceType": "AdverseReaction",
                "symptom": [
                    {
                        "code": {
                            "coding": [
                                {
                                    "system": "http://snomed.info/sct",
                                    "code": "422587007",
                                    "display": "Nausea"
                                }
                            ],
                            "text": "Nausea"
                        }
                    }
                ],
                "didNotOccurFlag": false
            }
        },
        {
            "id": "AllergyIntolerance/a76d99df-61de-46d5-bee7-15992ba27d24",
            "content": {
                "resourceType": "AllergyIntolerance",
                "sensitivityType": "allergy",
                "status": "confirmed",
                "contained": [
                    {
                        "id": "allergen",
                        "resourceType": "Substance",
                        "type": {
                            "coding": [
                                {
                                    "system": "http://www.nlm.nih.gov/research/umls/rxnorm",
                                    "code": "1191",
                                    "display": "Aspirin"
                                }
                            ],
                            "text": "Aspirin"
                        }
                    }
                ],
                "substance": {
                    "reference": "#allergen",
                    "display": "Aspirin"
                },
                "reaction": [
                    {
                        "reference": "AdverseReaction/cb74c18b-32b5-453c-898f-808a41df7b79",
                        "display": "Nausea"
                    }
                ]
            }
        },
        {
            "id": "Observation/98f0f719-c952-414a-9a5f-c68337c38b13",
            "content": {
                "resourceType": "Observation",
                "name": {
                    "coding": [
                        {
                            "system": "http://loinc.org",
                            "code": "8302-2",
                            "display": "Height"
                        }
                    ],
                    "text": "Height"
                },
                "valueQuantity": {
                    "value": 64,
                    "units": "[in_us]",
                    "code": "[in_us]",
                    "system": "http://unitsofmeasure.org"
                },
                "issued": "2012-09-20",
                "status": "final",
                "reliability": "ok",
                "extension": [
                    {
                        "url": "http://amida.com/fhir/Profile/extensions#observation-type",
                        "valueCoding": {
                            "code": "8716-3",
                            "display": "Vital signs",
                            "system": "http://loinc.org"
                        }
                    }
                ]
            }
        },
        {
            "id": "Observation/cbe3fb50-be2a-416a-b9e0-f34c978340ca",
            "content": {
                "resourceType": "Observation",
                "name": {
                    "coding": [
                        {
                            "system": "http://loinc.org",
                            "code": "3141-9",
                            "display": "Weight"
                        }
                    ],
                    "text": "Weight"
                },
                "valueQuantity": {
                    "value": 160,
                    "units": "[lb_av]",
                    "code": "[lb_av]",
                    "system": "http://unitsofmeasure.org"
                },
                "issued": "2012-09-20",
                "status": "final",
                "reliability": "ok",
                "extension": [
                    {
                        "url": "http://amida.com/fhir/Profile/extensions#observation-type",
                        "valueCoding": {
                            "code": "8716-3",
                            "display": "Vital signs",
                            "system": "http://loinc.org"
                        }
                    }
                ]
            }
        },
        {
            "id": "Observation/171dd76e-6a9f-4c5c-b2bf-4b253a9d65e4",
            "content": {
                "resourceType": "Observation",
                "name": {
                    "coding": [
                        {
                            "system": "http://loinc.org",
                            "code": "8480-6",
                            "display": "BP Systolic"
                        }
                    ],
                    "text": "BP Systolic"
                },
                "valueQuantity": {
                    "value": 116,
                    "units": "mm[Hg]",
                    "code": "mm[Hg]",
                    "system": "http://unitsofmeasure.org"
                },
                "issued": "2012-09-20",
                "status": "final",
                "reliability": "ok",
                "extension": [
                    {
                        "url": "http://amida.com/fhir/Profile/extensions#observation-type",
                        "valueCoding": {
                            "code": "8716-3",
                            "display": "Vital signs",
                            "system": "http://loinc.org"
                        }
                    }
                ]
            }
        },
        {
            "id": "Observation/a85dc917-8567-4b83-a2fa-8cdf97cc3ea5",
            "content": {
                "resourceType": "Observation",
                "name": {
                    "coding": [
                        {
                            "system": "http://loinc.org",
                            "code": "8462-4",
                            "display": "BP Diastolic"
                        }
                    ],
                    "text": "BP Diastolic"
                },
                "valueQuantity": {
                    "value": 72,
                    "units": "mm[Hg]",
                    "code": "mm[Hg]",
                    "system": "http://unitsofmeasure.org"
                },
                "issued": "2012-09-20",
                "status": "final",
                "reliability": "ok",
                "extension": [
                    {
                        "url": "http://amida.com/fhir/Profile/extensions#observation-type",
                        "valueCoding": {
                            "code": "8716-3",
                            "display": "Vital signs",
                            "system": "http://loinc.org"
                        }
                    }
                ]
            }
        },
        {
            "id": "Observation/6bd3ce72-47a6-44a7-93ae-be6897b39550",
            "content": {
                "resourceType": "Observation",
                "name": {
                    "coding": [
                        {
                            "system": "http://loinc.org",
                            "code": "39156-5",
                            "display": "Body Mass Index Calculated"
                        }
                    ],
                    "text": "Body Mass Index Calculated"
                },
                "valueQuantity": {
                    "value": 27.5
                },
                "issued": "2012-09-20",
                "status": "final",
                "reliability": "ok",
                "extension": [
                    {
                        "url": "http://amida.com/fhir/Profile/extensions#observation-type",
                        "valueCoding": {
                            "code": "8716-3",
                            "display": "Vital signs",
                            "system": "http://loinc.org"
                        }
                    }
                ]
            }
        },
        {
            "id": "Observation/a46a4405-2012-44ed-ad47-c2c1fdb74285",
            "content": {
                "resourceType": "Observation",
                "name": {
                    "coding": [
                        {
                            "system": "http://loinc.org",
                            "code": "55418-8",
                            "display": "Weight and Height tracking panel"
                        }
                    ],
                    "text": "Weight and Height tracking panel"
                },
                "issued": "2012-09-20",
                "status": "final",
                "reliability": "ok",
                "extension": [
                    {
                        "url": "http://amida.com/fhir/Profile/extensions#observation-type",
                        "valueCoding": {
                            "code": "8716-3",
                            "display": "Vital signs",
                            "system": "http://loinc.org"
                        }
                    }
                ],
                "related": [
                    {
                        "type": "has-component",
                        "target": {
                            "reference": "Observation/98f0f719-c952-414a-9a5f-c68337c38b13"
                        }
                    },
                    {
                        "type": "has-component",
                        "target": {
                            "reference": "Observation/cbe3fb50-be2a-416a-b9e0-f34c978340ca"
                        }
                    },
                    {
                        "type": "has-component",
                        "target": {
                            "reference": "Observation/6bd3ce72-47a6-44a7-93ae-be6897b39550"
                        }
                    }
                ]
            }
        },
        {
            "id": "Observation/01a99ff7-ce0f-46d7-ae9e-9affbd209f11",
            "content": {
                "resourceType": "Observation",
                "name": {
                    "coding": [
                        {
                            "system": "http://loinc.org",
                            "code": "35094-2",
                            "display": "Blood pressure panel"
                        }
                    ],
                    "text": "Blood pressure panel"
                },
                "issued": "2012-09-20",
                "status": "final",
                "reliability": "ok",
                "extension": [
                    {
                        "url": "http://amida.com/fhir/Profile/extensions#observation-type",
                        "valueCoding": {
                            "code": "8716-3",
                            "display": "Vital signs",
                            "system": "http://loinc.org"
                        }
                    }
                ],
                "related": [
                    {
                        "type": "has-component",
                        "target": {
                            "reference": "Observation/171dd76e-6a9f-4c5c-b2bf-4b253a9d65e4"
                        }
                    },
                    {
                        "type": "has-component",
                        "target": {
                            "reference": "Observation/a85dc917-8567-4b83-a2fa-8cdf97cc3ea5"
                        }
                    }
                ]
            }
        },
        {
            "id": "Condition/77572b5a-0f87-45de-bec6-87a2c3f15047",
            "content": {
                "resourceType": "Condition",
                "status": "confirmed",
                "onsetDate": "2012-09-20",
                "dateAsserted": "2012-09-20",
                "code": {
                    "coding": [
                        {
                            "system": "http://snomed.info/sct",
                            "code": "36971009",
                            "display": "Sinusitis"
                        }
                    ],
                    "text": "Sinusitis"
                }
            }
        },
        {
            "id": "Condition/23ba414c-7bd4-4e9a-8d63-370eb19c7c87",
            "content": {
                "resourceType": "Condition",
                "status": "confirmed",
                "onsetDate": "2011-11-10",
                "dateAsserted": "2011-11-10",
                "code": {
                    "coding": [
                        {
                            "system": "http://snomed.info/sct",
                            "code": "35489007",
                            "display": "Depression"
                        }
                    ],
                    "text": "Depression"
                }
            }
        },
        {
            "id": "Condition/061b2670-7c26-422f-b5bc-5e4a725783c5",
            "content": {
                "resourceType": "Condition",
                "status": "confirmed",
                "onsetDate": "2010-04-15",
                "dateAsserted": "2010-04-15",
                "code": {
                    "coding": [
                        {
                            "system": "http://snomed.info/sct",
                            "code": "40930008",
                            "display": "Hypothroidism"
                        }
                    ],
                    "text": "Hypothroidism"
                }
            }
        },
        {
            "id": "Observation/3602185c-d2d9-4b58-a1b8-361d8e869eee",
            "content": {
                "resourceType": "Observation",
                "name": {
                    "coding": [
                        {
                            "system": "http://loinc.org",
                            "code": "30313-1",
                            "display": "HGB"
                        }
                    ],
                    "text": "HGB"
                },
                "valueQuantity": {
                    "value": 12.8,
                    "units": "g/dl",
                    "code": "g/dl",
                    "system": "http://unitsofmeasure.org"
                },
                "issued": "2012-09-20",
                "status": "final",
                "reliability": "ok",
                "extension": [
                    {
                        "url": "http://amida.com/fhir/Profile/extensions#observation-type",
                        "valueCoding": {
                            "code": "11502-2",
                            "display": "Laboratory report",
                            "system": "http://loinc.org"
                        }
                    }
                ]
            }
        },
        {
            "id": "Observation/9b893601-102a-4c4b-95aa-99a3a6968acb",
            "content": {
                "resourceType": "Observation",
                "name": {
                    "coding": [
                        {
                            "system": "http://loinc.org",
                            "code": "33765-9",
                            "display": "WBC"
                        }
                    ],
                    "text": "WBC"
                },
                "valueQuantity": {
                    "value": 17.6,
                    "units": "10^3/ul",
                    "code": "10^3/ul",
                    "system": "http://unitsofmeasure.org"
                },
                "issued": "2012-09-20",
                "status": "final",
                "reliability": "ok",
                "extension": [
                    {
                        "url": "http://amida.com/fhir/Profile/extensions#observation-type",
                        "valueCoding": {
                            "code": "11502-2",
                            "display": "Laboratory report",
                            "system": "http://loinc.org"
                        }
                    }
                ]
            }
        },
        {
            "id": "Observation/a13bf84c-62ca-4e3e-a4b0-abfcba684010",
            "content": {
                "resourceType": "Observation",
                "name": {
                    "coding": [
                        {
                            "system": "http://loinc.org",
                            "code": "26515-7",
                            "display": "PLT"
                        }
                    ],
                    "text": "PLT"
                },
                "valueQuantity": {
                    "value": 247,
                    "units": "10^3/ul",
                    "code": "10^3/ul",
                    "system": "http://unitsofmeasure.org"
                },
                "issued": "2012-09-20",
                "status": "final",
                "reliability": "ok",
                "extension": [
                    {
                        "url": "http://amida.com/fhir/Profile/extensions#observation-type",
                        "valueCoding": {
                            "code": "11502-2",
                            "display": "Laboratory report",
                            "system": "http://loinc.org"
                        }
                    }
                ]
            }
        },
        {
            "id": "Observation/a3e27c6a-aef6-4bb1-b60d-ec353332e696",
            "content": {
                "resourceType": "Observation",
                "name": {
                    "coding": [
                        {
                            "system": "urn:oid:2.16.840.1.113883.6.12",
                            "code": "85025",
                            "display": "CBC"
                        }
                    ],
                    "text": "CBC"
                },
                "status": "final",
                "reliability": "ok",
                "related": [
                    {
                        "type": "has-component",
                        "target": {
                            "reference": "Observation/3602185c-d2d9-4b58-a1b8-361d8e869eee"
                        }
                    },
                    {
                        "type": "has-component",
                        "target": {
                            "reference": "Observation/9b893601-102a-4c4b-95aa-99a3a6968acb"
                        }
                    },
                    {
                        "type": "has-component",
                        "target": {
                            "reference": "Observation/a13bf84c-62ca-4e3e-a4b0-abfcba684010"
                        }
                    }
                ],
                "extension": [
                    {
                        "url": "http://amida.com/fhir/Profile/extensions#observation-type",
                        "valueCoding": {
                            "code": "11502-2",
                            "display": "Laboratory report",
                            "system": "http://loinc.org"
                        }
                    }
                ]
            }
        },
        {
            "id": "MedicationPrescription/34034ff6-6a6a-42ee-8807-cd1ba9dc9205",
            "content": {
                "resourceType": "MedicationPrescription",
                "status": "active",
                "dateWritten": "2012-09-20",
                "dosageInstruction": [
                    {
                        "doseQuantity": {
                            "value": 1
                        },
                        "timingSchedule": {
                            "event": [
                                {
                                    "start": "2012-09-20"
                                }
                            ],
                            "repeat": {
                                "frequency": 1,
                                "duration": 6,
                                "units": "h"
                            }
                        }
                    }
                ],
                "contained": [
                    {
                        "id": "med",
                        "resourceType": "Medication",
                        "name": "Cephalexin 500 MG Oral Tablet",
                        "code": {
                            "coding": [
                                {
                                    "system": "http://www.nlm.nih.gov/research/umls/rxnorm",
                                    "code": "309114",
                                    "display": "Cephalexin 500 MG Oral Tablet"
                                }
                            ],
                            "text": "Cephalexin 500 MG Oral Tablet"
                        }
                    }
                ],
                "medication": {
                    "reference": "#med",
                    "display": "Cephalexin 500 MG Oral Tablet"
                }
            }
        },
        {
            "id": "MedicationPrescription/3148116e-0d73-410c-82f1-604b13b9fce0",
            "content": {
                "resourceType": "MedicationPrescription",
                "status": "active",
                "dateWritten": "2011-11-20",
                "dosageInstruction": [
                    {
                        "route": {
                            "coding": [
                                {
                                    "system": "urn:oid:2.16.840.1.113883.3.26.1.1",
                                    "code": "C38288",
                                    "display": "ORAL"
                                }
                            ],
                            "text": "ORAL"
                        },
                        "doseQuantity": {
                            "value": 1
                        },
                        "timingSchedule": {
                            "event": [
                                {
                                    "start": "2011-11-20"
                                }
                            ],
                            "repeat": {
                                "frequency": 1,
                                "duration": 24,
                                "units": "h"
                            }
                        }
                    }
                ],
                "contained": [
                    {
                        "id": "med",
                        "resourceType": "Medication",
                        "name": "Fluoxetine",
                        "code": {
                            "coding": [
                                {
                                    "system": "http://www.nlm.nih.gov/research/umls/rxnorm",
                                    "code": "313989",
                                    "display": "Fluoxetine"
                                }
                            ],
                            "text": "Fluoxetine"
                        }
                    }
                ],
                "medication": {
                    "reference": "#med",
                    "display": "Fluoxetine"
                }
            }
        },
        {
            "id": "MedicationPrescription/b092ef00-4c65-46ad-ab1e-86cf87d7acf4",
            "content": {
                "resourceType": "MedicationPrescription",
                "status": "active",
                "dateWritten": "2010-04-15",
                "dosageInstruction": [
                    {
                        "route": {
                            "coding": [
                                {
                                    "system": "urn:oid:2.16.840.1.113883.3.26.1.1",
                                    "code": "C38288",
                                    "display": "ORAL"
                                }
                            ],
                            "text": "ORAL"
                        },
                        "doseQuantity": {
                            "value": 1
                        },
                        "timingSchedule": {
                            "event": [
                                {
                                    "start": "2010-04-15"
                                }
                            ],
                            "repeat": {
                                "frequency": 1,
                                "duration": 24,
                                "units": "h"
                            }
                        }
                    }
                ],
                "contained": [
                    {
                        "id": "med",
                        "resourceType": "Medication",
                        "name": "Levothyroxine Sodium",
                        "code": {
                            "coding": [
                                {
                                    "system": "http://www.nlm.nih.gov/research/umls/rxnorm",
                                    "code": "966247",
                                    "display": "Levothyroxine Sodium"
                                }
                            ],
                            "text": "Levothyroxine Sodium"
                        }
                    }
                ],
                "medication": {
                    "reference": "#med",
                    "display": "Levothyroxine Sodium"
                }
            }
        }
    ]
}