{
    "resourceType": "Bundle",
    "totalResults": 28,
    "entry": [
        {
            "id": "Patient/some-id-here-1987",
            "content": {
                "resourceType": "Patient",
                "identifier": [
                    {
                        "system": "http://www.midea-tecg.com",
                        "value": "JOE_DOE_IDENTIFIER"
                    }
                ],
                "name": [
                    {
                        "family": [
                            "DOE"
                        ],
                        "given": [
                            "JOE"
                        ]
                    }
                ]
            }
        },
        {
            "id": "AdverseReaction/e1f179fa-da89-4f89-810e-fdbdec6a9bb0",
            "content": {
                "resourceType": "AdverseReaction",
                "symptom": [
                    {
                        "code": {
                            "coding": [
                                {
                                    "system": "http://snomed.info/sct",
                                    "code": "247472004",
                                    "display": "Hives"
                                }
                            ],
                            "text": "Hives"
                        }
                    }
                ],
                "didNotOccurFlag": false,
                "subject": {
                    "reference": "Patient/some-id-here-1987",
                    "display": "DOE, JOE"
                }
            }
        },
        {
            "id": "AllergyIntolerance/43a1b6e3-ecc2-42e4-8f85-ce3c818173a7",
            "content": {
                "resourceType": "AllergyIntolerance",
                "sensitivityType": "allergy",
                "recordedDate": "2014-08-06",
                "status": "confirmed",
                "substance": {
                    "reference": "Substance/34e070d1-4351-46d9-b442-2aa90588e5da",
                    "display": "Aspirin"
                },
                "reaction": [
                    {
                        "reference": "AdverseReaction/e1f179fa-da89-4f89-810e-fdbdec6a9bb0",
                        "display": "Hives"
                    }
                ],
                "subject": {
                    "reference": "Patient/some-id-here-1987",
                    "display": "DOE, JOE"
                }
            }
        },
        {
            "id": "Observation/b8b61a87-ac77-4af7-9efc-74dc84c86d86",
            "content": {
                "resourceType": "Observation",
                "name": {
                    "coding": [
                        {
                            "system": "http://loinc.org",
                            "code": "8302-2",
                            "display": "Height"
                        }
                    ],
                    "text": "Height"
                },
                "valueQuantity": {
                    "value": 178,
                    "units": "cm",
                    "code": "cm",
                    "system": "http://unitsofmeasure.org"
                },
                "issued": "2014-08-06",
                "status": "final",
                "reliability": "ok",
                "extension": [
                    {
                        "url": "http://amida.com/fhir/Profile/extensions#observation-type",
                        "valueCoding": {
                            "code": "8716-3",
                            "display": "Vital signs",
                            "system": "http://loinc.org"
                        }
                    }
                ],
                "subject": {
                    "reference": "Patient/some-id-here-1987",
                    "display": "DOE, JOE"
                }
            }
        },
        {
            "id": "Observation/3eb05395-aacb-4c44-b083-bf5353d037b1",
            "content": {
                "resourceType": "Observation",
                "name": {
                    "coding": [
                        {
                            "system": "http://loinc.org",
                            "code": "3141-9",
                            "display": "Weight"
                        }
                    ],
                    "text": "Weight"
                },
                "valueQuantity": {
                    "value": 82,
                    "units": "kg",
                    "code": "kg",
                    "system": "http://unitsofmeasure.org"
                },
                "issued": "2014-08-06",
                "status": "final",
                "reliability": "ok",
                "extension": [
                    {
                        "url": "http://amida.com/fhir/Profile/extensions#observation-type",
                        "valueCoding": {
                            "code": "8716-3",
                            "display": "Vital signs",
                            "system": "http://loinc.org"
                        }
                    }
                ],
                "subject": {
                    "reference": "Patient/some-id-here-1987",
                    "display": "DOE, JOE"
                }
            }
        },
        {
            "id": "Observation/9ab3e732-c75f-4726-9579-7f114ada5baf",
            "content": {
                "resourceType": "Observation",
                "name": {
                    "coding": [
                        {
                            "system": "http://loinc.org",
                            "code": "8480-6",
                            "display": "BP Systolic"
                        }
                    ],
                    "text": "BP Systolic"
                },
                "valueQuantity": {
                    "value": 150,
                    "units": "mm[Hg]",
                    "code": "mm[Hg]",
                    "system": "http://unitsofmeasure.org"
                },
                "issued": "2014-08-06",
                "status": "final",
                "reliability": "ok",
                "extension": [
                    {
                        "url": "http://amida.com/fhir/Profile/extensions#observation-type",
                        "valueCoding": {
                            "code": "8716-3",
                            "display": "Vital signs",
                            "system": "http://loinc.org"
                        }
                    }
                ],
                "subject": {
                    "reference": "Patient/some-id-here-1987",
                    "display": "DOE, JOE"
                }
            }
        },
        {
            "id": "Observation/550a6235-2e85-4a1c-8ca9-7498e65348d7",
            "content": {
                "resourceType": "Observation",
                "name": {
                    "coding": [
                        {
                            "system": "http://loinc.org",
                            "code": "8462-4",
                            "display": "BP Diastolic"
                        }
                    ],
                    "text": "BP Diastolic"
                },
                "valueQuantity": {
                    "value": 100,
                    "units": "mm[Hg]",
                    "code": "mm[Hg]",
                    "system": "http://unitsofmeasure.org"
                },
                "issued": "2014-08-06",
                "status": "final",
                "reliability": "ok",
                "extension": [
                    {
                        "url": "http://amida.com/fhir/Profile/extensions#observation-type",
                        "valueCoding": {
                            "code": "8716-3",
                            "display": "Vital signs",
                            "system": "http://loinc.org"
                        }
                    }
                ],
                "subject": {
                    "reference": "Patient/some-id-here-1987",
                    "display": "DOE, JOE"
                }
            }
        },
        {
            "id": "Observation/f246483c-bf8d-4193-9c3b-606ab1a8c348",
            "content": {
                "resourceType": "Observation",
                "name": {
                    "coding": [
                        {
                            "system": "http://loinc.org",
                            "code": "39156-5",
                            "display": "Body Mass Index Calculated"
                        }
                    ],
                    "text": "Body Mass Index Calculated"
                },
                "valueQuantity": {
                    "value": 25.9
                },
                "issued": "2014-08-06",
                "status": "final",
                "reliability": "ok",
                "extension": [
                    {
                        "url": "http://amida.com/fhir/Profile/extensions#observation-type",
                        "valueCoding": {
                            "code": "8716-3",
                            "display": "Vital signs",
                            "system": "http://loinc.org"
                        }
                    }
                ],
                "subject": {
                    "reference": "Patient/some-id-here-1987",
                    "display": "DOE, JOE"
                }
            }
        },
        {
            "id": "Observation/4e28bd6a-0aff-4b9b-b0f5-45b44eefe38d",
            "content": {
                "resourceType": "Observation",
                "name": {
                    "coding": [
                        {
                            "system": "http://loinc.org",
                            "code": "55418-8",
                            "display": "Weight and Height tracking panel"
                        }
                    ],
                    "text": "Weight and Height tracking panel"
                },
                "issued": "2014-08-06",
                "status": "final",
                "reliability": "ok",
                "extension": [
                    {
                        "url": "http://amida.com/fhir/Profile/extensions#observation-type",
                        "valueCoding": {
                            "code": "8716-3",
                            "display": "Vital signs",
                            "system": "http://loinc.org"
                        }
                    }
                ],
                "related": [
                    {
                        "type": "has-component",
                        "target": {
                            "reference": "Observation/b8b61a87-ac77-4af7-9efc-74dc84c86d86"
                        }
                    },
                    {
                        "type": "has-component",
                        "target": {
                            "reference": "Observation/3eb05395-aacb-4c44-b083-bf5353d037b1"
                        }
                    },
                    {
                        "type": "has-component",
                        "target": {
                            "reference": "Observation/f246483c-bf8d-4193-9c3b-606ab1a8c348"
                        }
                    }
                ],
                "subject": {
                    "reference": "Patient/some-id-here-1987",
                    "display": "DOE, JOE"
                }
            }
        },
        {
            "id": "Observation/ce679b4b-73f8-4f35-9fad-9d6a292a3754",
            "content": {
                "resourceType": "Observation",
                "name": {
                    "coding": [
                        {
                            "system": "http://loinc.org",
                            "code": "35094-2",
                            "display": "Blood pressure panel"
                        }
                    ],
                    "text": "Blood pressure panel"
                },
                "issued": "2014-08-06",
                "status": "final",
                "reliability": "ok",
                "extension": [
                    {
                        "url": "http://amida.com/fhir/Profile/extensions#observation-type",
                        "valueCoding": {
                            "code": "8716-3",
                            "display": "Vital signs",
                            "system": "http://loinc.org"
                        }
                    }
                ],
                "related": [
                    {
                        "type": "has-component",
                        "target": {
                            "reference": "Observation/9ab3e732-c75f-4726-9579-7f114ada5baf"
                        }
                    },
                    {
                        "type": "has-component",
                        "target": {
                            "reference": "Observation/550a6235-2e85-4a1c-8ca9-7498e65348d7"
                        }
                    }
                ],
                "subject": {
                    "reference": "Patient/some-id-here-1987",
                    "display": "DOE, JOE"
                }
            }
        },
        {
            "id": "Condition/4820930b-4d4d-4bcc-bf1e-265066da25a0",
            "content": {
                "resourceType": "Condition",
                "status": "confirmed",
                "onsetDate": "2014-08-06",
                "dateAsserted": "2014-08-06",
                "code": {
                    "coding": [
                        {
                            "system": "http://snomed.info/sct",
                            "code": "233604007",
                            "display": "Pneumonia"
                        }
                    ],
                    "text": "Pneumonia"
                },
                "subject": {
                    "reference": "Patient/some-id-here-1987",
                    "display": "DOE, JOE"
                }
            }
        },
        {
            "id": "Condition/24dc92f9-2393-4dbd-bb99-dd52fe53adab",
            "content": {
                "resourceType": "Condition",
                "status": "confirmed",
                "onsetDate": "2014-05-01",
                "dateAsserted": "2014-05-01",
                "code": {
                    "coding": [
                        {
                            "system": "http://snomed.info/sct",
                            "code": "38341003",
                            "display": "Hypertension"
                        }
                    ],
                    "text": "Hypertension"
                },
                "subject": {
                    "reference": "Patient/some-id-here-1987",
                    "display": "DOE, JOE"
                }
            }
        },
        {
            "id": "Condition/74c7885f-d752-4711-a3ee-635855e5c428",
            "content": {
                "resourceType": "Condition",
                "status": "confirmed",
                "onsetDate": "2014-01-03",
                "dateAsserted": "2014-01-03",
                "code": {
                    "coding": [
                        {
                            "system": "http://snomed.info/sct",
                            "code": "195967001",
                            "display": "Asthma"
                        }
                    ],
                    "text": "Asthma"
                },
                "subject": {
                    "reference": "Patient/some-id-here-1987",
                    "display": "DOE, JOE"
                }
            }
        },
        {
            "id": "Observation/6b127f6b-4f3c-42c2-8af6-3a512da768c7",
            "content": {
                "resourceType": "Observation",
                "name": {
                    "coding": [
                        {
                            "system": "http://loinc.org",
                            "code": "2947-0",
                            "display": "Na"
                        }
                    ],
                    "text": "Na"
                },
                "valueQuantity": {
                    "value": 135,
                    "units": "mmol/L",
                    "code": "mmol/L",
                    "system": "http://unitsofmeasure.org"
                },
                "issued": "2014-08-06",
                "status": "final",
                "reliability": "ok",
                "extension": [
                    {
                        "url": "http://amida.com/fhir/Profile/extensions#observation-type",
                        "valueCoding": {
                            "code": "11502-2",
                            "display": "Laboratory report",
                            "system": "http://loinc.org"
                        }
                    }
                ],
                "subject": {
                    "reference": "Patient/some-id-here-1987",
                    "display": "DOE, JOE"
                }
            }
        },
        {
            "id": "Observation/5b4950d6-2654-46cf-b7cc-567ee194bb11",
            "content": {
                "resourceType": "Observation",
                "name": {
                    "coding": [
                        {
                            "system": "http://loinc.org",
                            "code": "6298-4",
                            "display": "K"
                        }
                    ],
                    "text": "K"
                },
                "valueQuantity": {
                    "value": 3.5,
                    "units": "mmol/L",
                    "code": "mmol/L",
                    "system": "http://unitsofmeasure.org"
                },
                "issued": "2014-08-06",
                "status": "final",
                "reliability": "ok",
                "extension": [
                    {
                        "url": "http://amida.com/fhir/Profile/extensions#observation-type",
                        "valueCoding": {
                            "code": "11502-2",
                            "display": "Laboratory report",
                            "system": "http://loinc.org"
                        }
                    }
                ],
                "subject": {
                    "reference": "Patient/some-id-here-1987",
                    "display": "DOE, JOE"
                }
            }
        },
        {
            "id": "Observation/83bdacbb-611b-45c1-b0f5-368dd69cf97e",
            "content": {
                "resourceType": "Observation",
                "name": {
                    "coding": [
                        {
                            "system": "http://loinc.org",
                            "code": "2069-3",
                            "display": "Cl"
                        }
                    ],
                    "text": "Cl"
                },
                "valueQuantity": {
                    "value": 110,
                    "units": "mmol/L",
                    "code": "mmol/L",
                    "system": "http://unitsofmeasure.org"
                },
                "issued": "2014-08-06",
                "status": "final",
                "reliability": "ok",
                "extension": [
                    {
                        "url": "http://amida.com/fhir/Profile/extensions#observation-type",
                        "valueCoding": {
                            "code": "11502-2",
                            "display": "Laboratory report",
                            "system": "http://loinc.org"
                        }
                    }
                ],
                "subject": {
                    "reference": "Patient/some-id-here-1987",
                    "display": "DOE, JOE"
                }
            }
        },
        {
            "id": "Observation/13348a20-8a63-48b8-9435-605074a1b4ae",
            "content": {
                "resourceType": "Observation",
                "name": {
                    "coding": [
                        {
                            "system": "http://loinc.org",
                            "code": "2028-9",
                            "display": "CO2"
                        }
                    ],
                    "text": "CO2"
                },
                "valueQuantity": {
                    "value": 25,
                    "units": "mmol/L",
                    "code": "mmol/L",
                    "system": "http://unitsofmeasure.org"
                },
                "issued": "2014-08-06",
                "status": "final",
                "reliability": "ok",
                "extension": [
                    {
                        "url": "http://amida.com/fhir/Profile/extensions#observation-type",
                        "valueCoding": {
                            "code": "11502-2",
                            "display": "Laboratory report",
                            "system": "http://loinc.org"
                        }
                    }
                ],
                "subject": {
                    "reference": "Patient/some-id-here-1987",
                    "display": "DOE, JOE"
                }
            }
        },
        {
            "id": "Observation/827f1a26-887c-402a-9bb7-e556b8e01906",
            "content": {
                "resourceType": "Observation",
                "name": {
                    "coding": [
                        {
                            "system": "http://loinc.org",
                            "code": "6299-2",
                            "display": "BUN"
                        }
                    ],
                    "text": "BUN"
                },
                "valueQuantity": {
                    "value": 25,
                    "units": "mg/dL",
                    "code": "mg/dL",
                    "system": "http://unitsofmeasure.org"
                },
                "issued": "2014-08-06",
                "status": "final",
                "reliability": "ok",
                "extension": [
                    {
                        "url": "http://amida.com/fhir/Profile/extensions#observation-type",
                        "valueCoding": {
                            "code": "11502-2",
                            "display": "Laboratory report",
                            "system": "http://loinc.org"
                        }
                    }
                ],
                "subject": {
                    "reference": "Patient/some-id-here-1987",
                    "display": "DOE, JOE"
                }
            }
        },
        {
            "id": "Observation/5bca26a1-32c9-4165-8e33-874f6e4a945d",
            "content": {
                "resourceType": "Observation",
                "name": {
                    "coding": [
                        {
                            "system": "http://loinc.org",
                            "code": "38483-4",
                            "display": "Cr"
                        }
                    ],
                    "text": "Cr"
                },
                "valueQuantity": {
                    "value": 1,
                    "units": "mg/dL",
                    "code": "mg/dL",
                    "system": "http://unitsofmeasure.org"
                },
                "issued": "2014-08-06",
                "status": "final",
                "reliability": "ok",
                "extension": [
                    {
                        "url": "http://amida.com/fhir/Profile/extensions#observation-type",
                        "valueCoding": {
                            "code": "11502-2",
                            "display": "Laboratory report",
                            "system": "http://loinc.org"
                        }
                    }
                ],
                "subject": {
                    "reference": "Patient/some-id-here-1987",
                    "display": "DOE, JOE"
                }
            }
        },
        {
            "id": "Observation/d0b86e63-f13c-4eb7-9977-59a5f0f749fd",
            "content": {
                "resourceType": "Observation",
                "name": {
                    "coding": [
                        {
                            "system": "http://loinc.org",
                            "code": "2339-0",
                            "display": "Glu"
                        }
                    ],
                    "text": "Glu"
                },
                "valueQuantity": {
                    "value": 199,
                    "units": "mg/dL",
                    "code": "mg/dL",
                    "system": "http://unitsofmeasure.org"
                },
                "issued": "2014-08-06",
                "status": "final",
                "reliability": "ok",
                "extension": [
                    {
                        "url": "http://amida.com/fhir/Profile/extensions#observation-type",
                        "valueCoding": {
                            "code": "11502-2",
                            "display": "Laboratory report",
                            "system": "http://loinc.org"
                        }
                    }
                ],
                "subject": {
                    "reference": "Patient/some-id-here-1987",
                    "display": "DOE, JOE"
                }
            }
        },
        {
            "id": "Observation/d365ae03-63df-49bf-b1e4-2682c250505a",
            "content": {
                "resourceType": "Observation",
                "name": {
                    "coding": [
                        {
                            "system": "http://loinc.org",
                            "code": "24321-2",
                            "display": "BMP"
                        }
                    ],
                    "text": "BMP"
                },
                "status": "final",
                "reliability": "ok",
                "related": [
                    {
                        "type": "has-component",
                        "target": {
                            "reference": "Observation/6b127f6b-4f3c-42c2-8af6-3a512da768c7"
                        }
                    },
                    {
                        "type": "has-component",
                        "target": {
                            "reference": "Observation/5b4950d6-2654-46cf-b7cc-567ee194bb11"
                        }
                    },
                    {
                        "type": "has-component",
                        "target": {
                            "reference": "Observation/83bdacbb-611b-45c1-b0f5-368dd69cf97e"
                        }
                    },
                    {
                        "type": "has-component",
                        "target": {
                            "reference": "Observation/13348a20-8a63-48b8-9435-605074a1b4ae"
                        }
                    },
                    {
                        "type": "has-component",
                        "target": {
                            "reference": "Observation/827f1a26-887c-402a-9bb7-e556b8e01906"
                        }
                    },
                    {
                        "type": "has-component",
                        "target": {
                            "reference": "Observation/5bca26a1-32c9-4165-8e33-874f6e4a945d"
                        }
                    },
                    {
                        "type": "has-component",
                        "target": {
                            "reference": "Observation/d0b86e63-f13c-4eb7-9977-59a5f0f749fd"
                        }
                    }
                ],
                "extension": [
                    {
                        "url": "http://amida.com/fhir/Profile/extensions#observation-type",
                        "valueCoding": {
                            "code": "11502-2",
                            "display": "Laboratory report",
                            "system": "http://loinc.org"
                        }
                    }
                ],
                "subject": {
                    "reference": "Patient/some-id-here-1987",
                    "display": "DOE, JOE"
                }
            }
        },
        {
            "id": "Observation/332700dd-bde0-4a65-bcf7-3e23ae92d23d",
            "content": {
                "resourceType": "Observation",
                "name": {
                    "coding": [
                        {
                            "system": "http://loinc.org",
                            "code": "6598-7",
                            "display": "Troponin T"
                        }
                    ],
                    "text": "Troponin T"
                },
                "valueQuantity": {
                    "value": 0.01,
                    "units": "ng/ml",
                    "code": "ng/ml",
                    "system": "http://unitsofmeasure.org"
                },
                "issued": "2014-08-06",
                "status": "final",
                "reliability": "ok",
                "extension": [
                    {
                        "url": "http://amida.com/fhir/Profile/extensions#observation-type",
                        "valueCoding": {
                            "code": "11502-2",
                            "display": "Laboratory report",
                            "system": "http://loinc.org"
                        }
                    }
                ],
                "subject": {
                    "reference": "Patient/some-id-here-1987",
                    "display": "DOE, JOE"
                }
            }
        },
        {
            "id": "Observation/22504991-7fd4-4e72-bf4d-62b6f630df12",
            "content": {
                "resourceType": "Observation",
                "name": {
                    "coding": [
                        {
                            "system": "http://loinc.org",
                            "code": "6598-7",
                            "display": "Troponin T"
                        }
                    ],
                    "text": "Troponin T"
                },
                "valueQuantity": {
                    "value": 0.01,
                    "units": "ng/ml",
                    "code": "ng/ml",
                    "system": "http://unitsofmeasure.org"
                },
                "issued": "2014-08-06",
                "status": "final",
                "reliability": "ok",
                "extension": [
                    {
                        "url": "http://amida.com/fhir/Profile/extensions#observation-type",
                        "valueCoding": {
                            "code": "11502-2",
                            "display": "Laboratory report",
                            "system": "http://loinc.org"
                        }
                    }
                ],
                "subject": {
                    "reference": "Patient/some-id-here-1987",
                    "display": "DOE, JOE"
                }
            }
        },
        {
            "id": "MedicationPrescription/d14d13d3-e9a4-429a-9c3b-b320c275d65d",
            "content": {
                "resourceType": "MedicationPrescription",
                "status": "active",
                "dateWritten": "2014-08-06",
                "dosageInstruction": [
                    {
                        "route": {
                            "coding": [
                                {
                                    "system": "urn:oid:2.16.840.1.113883.3.26.1.1",
                                    "code": "C38276",
                                    "display": "INTRAVENOUS"
                                }
                            ],
                            "text": "INTRAVENOUS"
                        },
                        "doseQuantity": {
                            "value": 2,
                            "units": "Grams",
                            "code": "Grams",
                            "system": "http://unitsofmeasure.org"
                        },
                        "timingSchedule": {
                            "event": [
                                {
                                    "start": "2014-08-06"
                                }
                            ],
                            "repeat": {
                                "frequency": 1,
                                "duration": 24,
                                "units": "h"
                            }
                        }
                    }
                ],
                "medication": {
                    "reference": "Medication/06c8e077-31f7-47b2-9f77-39efa7cb139e",
                    "display": "Ceftriaxone 2 grams IV"
                },
                "patient": {
                    "reference": "Patient/some-id-here-1987",
                    "display": "DOE, JOE"
                }
            }
        },
        {
            "id": "MedicationPrescription/266cb538-2e0c-4fc8-85b7-a439faa23d0e",
            "content": {
                "resourceType": "MedicationPrescription",
                "status": "active",
                "dateWritten": "2014-08-06",
                "dosageInstruction": [
                    {
                        "doseQuantity": {
                            "value": 2.5,
                            "units": "mg/3ml",
                            "code": "mg/3ml",
                            "system": "http://unitsofmeasure.org"
                        },
                        "timingSchedule": {
                            "event": [
                                {
                                    "start": "2014-08-06"
                                }
                            ],
                            "repeat": {
                                "frequency": 1,
                                "duration": 8,
                                "units": "h"
                            }
                        }
                    }
                ],
                "medication": {
                    "reference": "Medication/2e8316f3-a5bc-4e95-871d-2c92d5c8f98d",
                    "display": "Albuterol Inhaled 2.5mg/3ml NEB"
                },
                "patient": {
                    "reference": "Patient/some-id-here-1987",
                    "display": "DOE, JOE"
                }
            }
        },
        {
            "id": "Substance/34e070d1-4351-46d9-b442-2aa90588e5da",
            "content": {
                "resourceType": "Substance",
                "type": {
                    "coding": [
                        {
                            "system": "http://www.nlm.nih.gov/research/umls/rxnorm",
                            "code": "1191",
                            "display": "Aspirin"
                        }
                    ],
                    "text": "Aspirin"
                }
            }
        },
        {
            "id": "Medication/06c8e077-31f7-47b2-9f77-39efa7cb139e",
            "content": {
                "resourceType": "Medication",
                "name": "Ceftriaxone 2 grams IV",
                "code": {
                    "coding": [
                        {
                            "system": "http://www.nlm.nih.gov/research/umls/rxnorm",
                            "code": "1152108",
                            "display": "Ceftriaxone 2 grams IV"
                        }
                    ],
                    "text": "Ceftriaxone 2 grams IV"
                }
            }
        },
        {
            "id": "Medication/2e8316f3-a5bc-4e95-871d-2c92d5c8f98d",
            "content": {
                "resourceType": "Medication",
                "name": "Albuterol Inhaled 2.5mg/3ml NEB",
                "code": {
                    "coding": [
                        {
                            "system": "http://www.nlm.nih.gov/research/umls/rxnorm",
                            "code": "1154602",
                            "display": "Albuterol Inhaled 2.5mg/3ml NEB"
                        }
                    ],
                    "text": "Albuterol Inhaled 2.5mg/3ml NEB"
                }
            }
        }
    ]
}