{
    "resourceType": "Bundle",
    "total": 14,
    "entry": [
        {
            "resource": {
                "id": "Patient/0",
                "resourceType": "Patient",
                "identifier": [
                    {
                        "system": "urn:oid:1.3.6.1.4.1.22812.3.99930.3",
                        "value": "110107073916280"
                    }
                ],
                "name": [
                    {
                        "family": [
                            "Everyman"
                        ],
                        "given": [
                            "Adam"
                        ]
                    }
                ],
                "telecom": [
                    {
                        "system": "phone",
                        "value": "+1-(555)555-3333",
                        "use": "home"
                    }
                ],
                "gender": "male",
                "birthDate": "1962-10-22",
                "address": [
                    {
                        "use": "home",
                        "line": [
                            "1234 Six Forks"
                        ],
                        "city": "Portland",
                        "state": "OR",
                        "postalCode": "97005",
                        "country": "US"
                    }
                ],
                "communication": [
                    {
                        "language": {
                            "coding": [
                                {
                                    "code": "eng",
                                    "system": "urn:ietf:params:language"
                                }
                            ]
                        },
                        "preferred": true
                    }
                ],
                "extension": [
                    {
                        "url": "http://hl7.org/fhir/StructureDefinition/us-core-race",
                        "valueCodeableConcept": {
                            "coding": [
                                {
                                    "system": "urn:oid:2.16.840.1.113883.6.238",
                                    "code": "2106-3",
                                    "display": "White"
                                }
                            ]
                        }
                    },
                    {
                        "url": "http://hl7.org/fhir/StructureDefinition/us-core-ethnicity",
                        "valueCodeableConcept": {
                            "coding": [
                                {
                                    "system": "urn:oid:2.16.840.1.113883.6.238",
                                    "code": "2186-5",
                                    "display": "Not Hispanic or Latino"
                                }
                            ]
                        }
                    }
                ]
            }
        },
        {
            "resource": {
                "id": "AllergyIntolerance/1",
                "resourceType": "AllergyIntolerance",
                "recordedDate": "1998-01-10",
                "status": "confirmed",
                "substance": {
                    "coding": [
                        {
                            "system": "http://www.nlm.nih.gov/research/umls/rxnorm",
                            "code": "7982",
                            "display": "Penicillin G benzathine"
                        }
                    ],
                    "text": "Penicillin G benzathine"
                },
                "event": [
                    {
                        "manifestation": [
                            {
                                "coding": [
                                    {
                                        "system": "http://snomed.info/sct",
                                        "code": "247472004",
                                        "display": "Hives"
                                    }
                                ],
                                "text": "Hives"
                            }
                        ]
                    }
                ],
                "subject": {
                    "reference": "Patient/0",
                    "display": "Everyman, Adam"
                }
            }
        },
        {
            "resource": {
                "id": "Observation/2",
                "resourceType": "Observation",
                "code": {
                    "coding": [
                        {
                            "system": "http://loinc.org",
                            "code": "8302-2",
                            "display": "Height"
                        }
                    ],
                    "text": "Height"
                },
                "valueQuantity": {
                    "value": 70,
                    "units": "[in_us]",
                    "code": "[in_us]",
                    "system": "http://unitsofmeasure.org"
                },
                "issued": "2012-08-15",
                "status": "final",
                "reliability": "ok",
                "subject": {
                    "reference": "Patient/0",
                    "display": "Everyman, Adam"
                }
            }
        },
        {
            "resource": {
                "id": "Observation/3",
                "resourceType": "Observation",
                "code": {
                    "coding": [
                        {
                            "system": "http://loinc.org",
                            "code": "3141-9",
                            "display": "Weight"
                        }
                    ],
                    "text": "Weight"
                },
                "valueQuantity": {
                    "value": 195,
                    "units": "[lb_av]",
                    "code": "[lb_av]",
                    "system": "http://unitsofmeasure.org"
                },
                "issued": "2012-08-15",
                "status": "final",
                "reliability": "ok",
                "subject": {
                    "reference": "Patient/0",
                    "display": "Everyman, Adam"
                }
            }
        },
        {
            "resource": {
                "id": "Observation/4",
                "resourceType": "Observation",
                "code": {
                    "coding": [
                        {
                            "system": "http://loinc.org",
                            "code": "8480-6",
                            "display": "BP Systolic"
                        }
                    ],
                    "text": "BP Systolic"
                },
                "valueQuantity": {
                    "value": 150,
                    "units": "mm[Hg]",
                    "code": "mm[Hg]",
                    "system": "http://unitsofmeasure.org"
                },
                "issued": "2012-08-15",
                "status": "final",
                "reliability": "ok",
                "subject": {
                    "reference": "Patient/0",
                    "display": "Everyman, Adam"
                }
            }
        },
        {
            "resource": {
                "id": "Observation/5",
                "resourceType": "Observation",
                "code": {
                    "coding": [
                        {
                            "system": "http://loinc.org",
                            "code": "8462-4",
                            "display": "BP Diastolic"
                        }
                    ],
                    "text": "BP Diastolic"
                },
                "valueQuantity": {
                    "value": 100,
                    "units": "mm[Hg]",
                    "code": "mm[Hg]",
                    "system": "http://unitsofmeasure.org"
                },
                "issued": "2012-08-15",
                "status": "final",
                "reliability": "ok",
                "subject": {
                    "reference": "Patient/0",
                    "display": "Everyman, Adam"
                }
            }
        },
        {
            "resource": {
                "id": "Observation/6",
                "resourceType": "Observation",
                "code": {
                    "coding": [
                        {
                            "system": "http://loinc.org",
                            "code": "39156-5",
                            "display": "Body Mass Index Calculated"
                        }
                    ],
                    "text": "Body Mass Index Calculated"
                },
                "valueQuantity": {
                    "value": 28
                },
                "issued": "2012-08-15",
                "status": "final",
                "reliability": "ok",
                "subject": {
                    "reference": "Patient/0",
                    "display": "Everyman, Adam"
                }
            }
        },
        {
            "resource": {
                "id": "Observation/7",
                "resourceType": "Observation",
                "code": {
                    "coding": [
                        {
                            "system": "http://loinc.org",
                            "code": "55418-8",
                            "display": "Weight and Height tracking panel"
                        }
                    ],
                    "text": "Weight and Height tracking panel"
                },
                "issued": "2012-08-15",
                "status": "final",
                "reliability": "ok",
                "related": [
                    {
                        "type": "has-component",
                        "target": {
                            "reference": "Observation/2"
                        }
                    },
                    {
                        "type": "has-component",
                        "target": {
                            "reference": "Observation/3"
                        }
                    },
                    {
                        "type": "has-component",
                        "target": {
                            "reference": "Observation/6"
                        }
                    }
                ],
                "subject": {
                    "reference": "Patient/0",
                    "display": "Everyman, Adam"
                }
            }
        },
        {
            "resource": {
                "id": "Observation/8",
                "resourceType": "Observation",
                "code": {
                    "coding": [
                        {
                            "system": "http://loinc.org",
                            "code": "35094-2",
                            "display": "Blood pressure panel"
                        }
                    ],
                    "text": "Blood pressure panel"
                },
                "issued": "2012-08-15",
                "status": "final",
                "reliability": "ok",
                "related": [
                    {
                        "type": "has-component",
                        "target": {
                            "reference": "Observation/4"
                        }
                    },
                    {
                        "type": "has-component",
                        "target": {
                            "reference": "Observation/5"
                        }
                    }
                ],
                "subject": {
                    "reference": "Patient/0",
                    "display": "Everyman, Adam"
                }
            }
        },
        {
            "resource": {
                "id": "Condition/9",
                "resourceType": "Condition",
                "status": "confirmed",
                "onsetDateTime": "2012-08-15",
                "dateAsserted": "2012-08-15",
                "code": {
                    "coding": [
                        {
                            "system": "http://snomed.info/sct",
                            "code": "64109004",
                            "display": "Costochondritis"
                        }
                    ],
                    "text": "Costochondritis"
                },
                "subject": {
                    "reference": "Patient/0",
                    "display": "Everyman, Adam"
                }
            }
        },
        {
            "resource": {
                "id": "Condition/10",
                "resourceType": "Condition",
                "status": "confirmed",
                "onsetDateTime": "2011-09-25",
                "dateAsserted": "2011-09-25",
                "code": {
                    "coding": [
                        {
                            "system": "http://snomed.info/sct",
                            "code": "195967001",
                            "display": "Asthma"
                        }
                    ],
                    "text": "Asthma"
                },
                "subject": {
                    "reference": "Patient/0",
                    "display": "Everyman, Adam"
                }
            }
        },
        {
            "resource": {
                "id": "Observation/11",
                "resourceType": "Observation",
                "code": {
                    "coding": [
                        {
                            "system": "http://loinc.org",
                            "code": "2028-9",
                            "display": "CO2"
                        }
                    ],
                    "text": "CO2"
                },
                "valueQuantity": {
                    "value": 25,
                    "units": "mmol/L",
                    "code": "mmol/L",
                    "system": "http://unitsofmeasure.org"
                },
                "issued": "2012-08-15",
                "status": "final",
                "reliability": "ok",
                "subject": {
                    "reference": "Patient/0",
                    "display": "Everyman, Adam"
                }
            }
        },
        {
            "resource": {
                "id": "Observation/12",
                "resourceType": "Observation",
                "code": {
                    "coding": [
                        {
                            "system": "urn:oid:2.16.840.1.113883.6.12",
                            "code": "82374",
                            "display": "CO2"
                        }
                    ],
                    "text": "CO2"
                },
                "status": "final",
                "reliability": "ok",
                "related": [
                    {
                        "type": "has-component",
                        "target": {
                            "reference": "Observation/11"
                        }
                    }
                ],
                "subject": {
                    "reference": "Patient/0",
                    "display": "Everyman, Adam"
                }
            }
        },
        {
            "resource": {
                "id": "MedicationPrescription/13",
                "resourceType": "MedicationPrescription",
                "status": "active",
                "dateWritten": "2012-02-20",
                "dosageInstruction": [
                    {
                        "route": {
                            "coding": [
                                {
                                    "system": "urn:oid:2.16.840.1.113883.3.26.1.1",
                                    "code": "C38216",
                                    "display": "RESPIRATORY (INHALATION)"
                                }
                            ],
                            "text": "RESPIRATORY (INHALATION)"
                        },
                        "doseQuantity": {
                            "value": 2,
                            "units": "Puffs",
                            "code": "Puffs",
                            "system": "http://unitsofmeasure.org"
                        },
                        "scheduledTiming": {
                            "event": [
                                {
                                    "start": "2012-02-20"
                                }
                            ],
                            "repeat": {
                                "frequency": 1,
                                "duration": 6,
                                "units": "h"
                            }
                        }
                    }
                ],
                "contained": [
                    {
                        "id": "med",
                        "resourceType": "Medication",
                        "name": "Albuterol 0.09 MG/ACTUAT metered dose",
                        "code": {
                            "coding": [
                                {
                                    "system": "http://www.nlm.nih.gov/research/umls/rxnorm",
                                    "code": "573621",
                                    "display": "Albuterol 0.09 MG/ACTUAT metered dose"
                                }
                            ],
                            "text": "Albuterol 0.09 MG/ACTUAT metered dose"
                        }
                    }
                ],
                "medication": {
                    "reference": "#med",
                    "display": "Albuterol 0.09 MG/ACTUAT metered dose"
                },
                "patient": {
                    "reference": "Patient/0",
                    "display": "Everyman, Adam"
                }
            }
        }
    ]
}