{
    "resourceType": "Bundle",
    "totalResults": 15,
    "entry": [
        {
            "id": "AdverseReaction/d781cdf3-2b19-4693-8727-7a76d18e4bcd",
            "content": {
                "resourceType": "AdverseReaction",
                "symptom": [
                    {
                        "code": {
                            "coding": [
                                {
                                    "system": "http://snomed.info/sct",
                                    "code": "247472004",
                                    "display": "Hives"
                                }
                            ],
                            "text": "Hives"
                        }
                    }
                ],
                "didNotOccurFlag": false
            }
        },
        {
            "id": "AllergyIntolerance/17596155-28f8-4adc-8f16-c1f36eb4651f",
            "content": {
                "resourceType": "AllergyIntolerance",
                "criticality": "low",
                "sensitivityType": "allergy",
                "status": "confirmed",
                "contained": [
                    {
                        "id": "allergen",
                        "resourceType": "Substance",
                        "type": {
                            "coding": [
                                {
                                    "system": "http://www.nlm.nih.gov/research/umls/rxnorm",
                                    "code": "1191",
                                    "display": "Aspirin"
                                }
                            ],
                            "text": "Aspirin"
                        }
                    }
                ],
                "substance": {
                    "reference": "#allergen",
                    "display": "Aspirin"
                },
                "reaction": [
                    {
                        "reference": "AdverseReaction/d781cdf3-2b19-4693-8727-7a76d18e4bcd",
                        "display": "Hives"
                    }
                ]
            }
        },
        {
            "id": "Observation/0957ef3f-78d8-41b0-90fa-13feece487fb",
            "content": {
                "resourceType": "Observation",
                "name": {
                    "coding": [
                        {
                            "system": "http://loinc.org",
                            "code": "8302-2",
                            "display": "Height"
                        }
                    ],
                    "text": "Height"
                },
                "valueQuantity": {
                    "value": 70,
                    "units": "[in_us]",
                    "code": "[in_us]",
                    "system": "http://unitsofmeasure.org"
                },
                "issued": "2012-08-15",
                "status": "final",
                "reliability": "ok",
                "extension": [
                    {
                        "url": "http://amida.com/fhir/Profile/extensions#observation-type",
                        "valueCoding": {
                            "code": "8716-3",
                            "display": "Vital signs",
                            "system": "http://loinc.org"
                        }
                    }
                ]
            }
        },
        {
            "id": "Observation/4971fac5-255b-4c89-ae16-d86a7db46e50",
            "content": {
                "resourceType": "Observation",
                "name": {
                    "coding": [
                        {
                            "system": "http://loinc.org",
                            "code": "3141-9",
                            "display": "Weight"
                        }
                    ],
                    "text": "Weight"
                },
                "valueQuantity": {
                    "value": 195,
                    "units": "[lb_av]",
                    "code": "[lb_av]",
                    "system": "http://unitsofmeasure.org"
                },
                "issued": "2012-08-15",
                "status": "final",
                "reliability": "ok",
                "extension": [
                    {
                        "url": "http://amida.com/fhir/Profile/extensions#observation-type",
                        "valueCoding": {
                            "code": "8716-3",
                            "display": "Vital signs",
                            "system": "http://loinc.org"
                        }
                    }
                ]
            }
        },
        {
            "id": "Observation/5cf63c07-f758-47d1-b94b-728a6a0ffa2c",
            "content": {
                "resourceType": "Observation",
                "name": {
                    "coding": [
                        {
                            "system": "http://loinc.org",
                            "code": "8480-6",
                            "display": "BP Systolic"
                        }
                    ],
                    "text": "BP Systolic"
                },
                "valueQuantity": {
                    "value": 150,
                    "units": "mm[Hg]",
                    "code": "mm[Hg]",
                    "system": "http://unitsofmeasure.org"
                },
                "issued": "2012-08-15",
                "status": "final",
                "reliability": "ok",
                "extension": [
                    {
                        "url": "http://amida.com/fhir/Profile/extensions#observation-type",
                        "valueCoding": {
                            "code": "8716-3",
                            "display": "Vital signs",
                            "system": "http://loinc.org"
                        }
                    }
                ]
            }
        },
        {
            "id": "Observation/f008d4b9-3734-4abd-8e27-c620f2505a42",
            "content": {
                "resourceType": "Observation",
                "name": {
                    "coding": [
                        {
                            "system": "http://loinc.org",
                            "code": "8462-4",
                            "display": "BP Diastolic"
                        }
                    ],
                    "text": "BP Diastolic"
                },
                "valueQuantity": {
                    "value": 100,
                    "units": "mm[Hg]",
                    "code": "mm[Hg]",
                    "system": "http://unitsofmeasure.org"
                },
                "issued": "2012-08-15",
                "status": "final",
                "reliability": "ok",
                "extension": [
                    {
                        "url": "http://amida.com/fhir/Profile/extensions#observation-type",
                        "valueCoding": {
                            "code": "8716-3",
                            "display": "Vital signs",
                            "system": "http://loinc.org"
                        }
                    }
                ]
            }
        },
        {
            "id": "Observation/15487bce-6a33-4e66-89fb-347bb16329f7",
            "content": {
                "resourceType": "Observation",
                "name": {
                    "coding": [
                        {
                            "system": "http://loinc.org",
                            "code": "39156-5",
                            "display": "Body Mass Index Calculated"
                        }
                    ],
                    "text": "Body Mass Index Calculated"
                },
                "valueQuantity": {
                    "value": 28
                },
                "issued": "2012-08-15",
                "status": "final",
                "reliability": "ok",
                "extension": [
                    {
                        "url": "http://amida.com/fhir/Profile/extensions#observation-type",
                        "valueCoding": {
                            "code": "8716-3",
                            "display": "Vital signs",
                            "system": "http://loinc.org"
                        }
                    }
                ]
            }
        },
        {
            "id": "Observation/a76de59b-3bd7-4122-8eb5-a669f393f4b7",
            "content": {
                "resourceType": "Observation",
                "name": {
                    "coding": [
                        {
                            "system": "http://loinc.org",
                            "code": "55418-8",
                            "display": "Weight and Height tracking panel"
                        }
                    ],
                    "text": "Weight and Height tracking panel"
                },
                "issued": "2012-08-15",
                "status": "final",
                "reliability": "ok",
                "extension": [
                    {
                        "url": "http://amida.com/fhir/Profile/extensions#observation-type",
                        "valueCoding": {
                            "code": "8716-3",
                            "display": "Vital signs",
                            "system": "http://loinc.org"
                        }
                    }
                ],
                "related": [
                    {
                        "type": "has-component",
                        "target": {
                            "reference": "Observation/0957ef3f-78d8-41b0-90fa-13feece487fb"
                        }
                    },
                    {
                        "type": "has-component",
                        "target": {
                            "reference": "Observation/4971fac5-255b-4c89-ae16-d86a7db46e50"
                        }
                    },
                    {
                        "type": "has-component",
                        "target": {
                            "reference": "Observation/15487bce-6a33-4e66-89fb-347bb16329f7"
                        }
                    }
                ]
            }
        },
        {
            "id": "Observation/c3b503a4-3116-4b13-adc8-859c3911ceb6",
            "content": {
                "resourceType": "Observation",
                "name": {
                    "coding": [
                        {
                            "system": "http://loinc.org",
                            "code": "35094-2",
                            "display": "Blood pressure panel"
                        }
                    ],
                    "text": "Blood pressure panel"
                },
                "issued": "2012-08-15",
                "status": "final",
                "reliability": "ok",
                "extension": [
                    {
                        "url": "http://amida.com/fhir/Profile/extensions#observation-type",
                        "valueCoding": {
                            "code": "8716-3",
                            "display": "Vital signs",
                            "system": "http://loinc.org"
                        }
                    }
                ],
                "related": [
                    {
                        "type": "has-component",
                        "target": {
                            "reference": "Observation/5cf63c07-f758-47d1-b94b-728a6a0ffa2c"
                        }
                    },
                    {
                        "type": "has-component",
                        "target": {
                            "reference": "Observation/f008d4b9-3734-4abd-8e27-c620f2505a42"
                        }
                    }
                ]
            }
        },
        {
            "id": "Condition/97ddf469-3f29-4ea2-9657-b88d596a585c",
            "content": {
                "resourceType": "Condition",
                "status": "confirmed",
                "onsetDate": "2009-05-01",
                "dateAsserted": "2009-05-01",
                "code": {
                    "coding": [
                        {
                            "system": "http://snomed.info/sct",
                            "code": "38341003",
                            "display": "Hypertension"
                        }
                    ],
                    "text": "Hypertension"
                }
            }
        },
        {
            "id": "Condition/a2357cba-6bb3-4420-b251-e7db12d19f9a",
            "content": {
                "resourceType": "Condition",
                "status": "confirmed",
                "onsetDate": "2007-01-03",
                "dateAsserted": "2007-01-03",
                "code": {
                    "coding": [
                        {
                            "system": "http://snomed.info/sct",
                            "code": "195967001",
                            "display": "Asthma"
                        }
                    ],
                    "text": "Asthma"
                }
            }
        },
        {
            "id": "Observation/ccbba4fc-b312-4cd4-a63d-9bf071ab6a97",
            "content": {
                "resourceType": "Observation",
                "name": {
                    "coding": [
                        {
                            "system": "http://loinc.org",
                            "code": "2028-9",
                            "display": "CO2"
                        }
                    ],
                    "text": "CO2"
                },
                "valueQuantity": {
                    "value": 25,
                    "units": "mmol/L",
                    "code": "mmol/L",
                    "system": "http://unitsofmeasure.org"
                },
                "issued": "2012-08-15",
                "status": "final",
                "reliability": "ok",
                "extension": [
                    {
                        "url": "http://amida.com/fhir/Profile/extensions#observation-type",
                        "valueCoding": {
                            "code": "11502-2",
                            "display": "Laboratory report",
                            "system": "http://loinc.org"
                        }
                    }
                ]
            }
        },
        {
            "id": "Observation/d978fb24-7bb7-401e-9eb5-5cf44e854963",
            "content": {
                "resourceType": "Observation",
                "name": {
                    "coding": [
                        {
                            "system": "urn:oid:2.16.840.1.113883.6.12",
                            "code": "82374",
                            "display": "CO2"
                        }
                    ],
                    "text": "CO2"
                },
                "status": "final",
                "reliability": "ok",
                "related": [
                    {
                        "type": "has-component",
                        "target": {
                            "reference": "Observation/ccbba4fc-b312-4cd4-a63d-9bf071ab6a97"
                        }
                    }
                ],
                "extension": [
                    {
                        "url": "http://amida.com/fhir/Profile/extensions#observation-type",
                        "valueCoding": {
                            "code": "11502-2",
                            "display": "Laboratory report",
                            "system": "http://loinc.org"
                        }
                    }
                ]
            }
        },
        {
            "id": "MedicationPrescription/e84d08da-c939-48ef-898b-7a7389918c52",
            "content": {
                "resourceType": "MedicationPrescription",
                "status": "active",
                "dateWritten": "2007-10-01",
                "dosageInstruction": [
                    {
                        "route": {
                            "coding": [
                                {
                                    "system": "urn:oid:2.16.840.1.113883.3.26.1.1",
                                    "code": "C38216",
                                    "display": "RESPIRATORY (INHALATION)"
                                }
                            ],
                            "text": "RESPIRATORY (INHALATION)"
                        },
                        "doseQuantity": {
                            "value": 88,
                            "units": "mcg",
                            "code": "mcg",
                            "system": "http://unitsofmeasure.org"
                        },
                        "timingSchedule": {
                            "event": [
                                {
                                    "start": "2007-10-01"
                                }
                            ],
                            "repeat": {
                                "frequency": 1,
                                "duration": 12,
                                "units": "h"
                            }
                        }
                    }
                ],
                "contained": [
                    {
                        "id": "med",
                        "resourceType": "Medication",
                        "name": "fluticasone inhaled",
                        "code": {
                            "coding": [
                                {
                                    "system": "http://www.nlm.nih.gov/research/umls/rxnorm",
                                    "code": "1165655",
                                    "display": "fluticasone inhaled"
                                }
                            ],
                            "text": "fluticasone inhaled"
                        }
                    }
                ],
                "medication": {
                    "reference": "#med",
                    "display": "fluticasone inhaled"
                }
            }
        },
        {
            "id": "MedicationPrescription/28b6773d-7548-4012-beee-6538cdf45390",
            "content": {
                "resourceType": "MedicationPrescription",
                "status": "active",
                "dateWritten": "2009-05-01",
                "dosageInstruction": [
                    {
                        "route": {
                            "coding": [
                                {
                                    "system": "urn:oid:2.16.840.1.113883.3.26.1.1",
                                    "code": "C38288",
                                    "display": "ORAL"
                                }
                            ],
                            "text": "ORAL"
                        },
                        "doseQuantity": {
                            "value": 1
                        },
                        "timingSchedule": {
                            "event": [
                                {
                                    "start": "2009-05-01"
                                }
                            ],
                            "repeat": {
                                "frequency": 1,
                                "duration": 12,
                                "units": "h"
                            }
                        }
                    }
                ],
                "contained": [
                    {
                        "id": "med",
                        "resourceType": "Medication",
                        "name": "metoprolol tartrate 50 MG Oral Tablet",
                        "code": {
                            "coding": [
                                {
                                    "system": "http://www.nlm.nih.gov/research/umls/rxnorm",
                                    "code": "866924",
                                    "display": "metoprolol tartrate 50 MG Oral Tablet"
                                }
                            ],
                            "text": "metoprolol tartrate 50 MG Oral Tablet"
                        }
                    }
                ],
                "medication": {
                    "reference": "#med",
                    "display": "metoprolol tartrate 50 MG Oral Tablet"
                }
            }
        }
    ]
}