{
    "resourceType": "Bundle",
    "totalResults": 24,
    "entry": [
        {
            "id": "AdverseReaction/495e63c0-e5c1-439d-9d0c-3943f688e592",
            "content": {
                "resourceType": "AdverseReaction",
                "symptom": [
                    {
                        "code": {
                            "coding": [
                                {
                                    "system": "http://snomed.info/sct",
                                    "code": "247472004",
                                    "display": "Hives"
                                }
                            ],
                            "text": "Hives"
                        }
                    }
                ],
                "didNotOccurFlag": false
            }
        },
        {
            "id": "AllergyIntolerance/018f8a19-bba9-4567-9e5e-b35b4d34a46a",
            "content": {
                "resourceType": "AllergyIntolerance",
                "sensitivityType": "allergy",
                "recordedDate": "2014-08-06",
                "status": "confirmed",
                "contained": [
                    {
                        "id": "allergen",
                        "resourceType": "Substance",
                        "type": {
                            "coding": [
                                {
                                    "system": "http://www.nlm.nih.gov/research/umls/rxnorm",
                                    "code": "1191",
                                    "display": "Aspirin"
                                }
                            ],
                            "text": "Aspirin"
                        }
                    }
                ],
                "substance": {
                    "reference": "#allergen",
                    "display": "Aspirin"
                },
                "reaction": [
                    {
                        "reference": "AdverseReaction/495e63c0-e5c1-439d-9d0c-3943f688e592",
                        "display": "Hives"
                    }
                ]
            }
        },
        {
            "id": "Observation/923d5316-119b-499b-8ef0-7be011e0deae",
            "content": {
                "resourceType": "Observation",
                "name": {
                    "coding": [
                        {
                            "system": "http://loinc.org",
                            "code": "8302-2",
                            "display": "Height"
                        }
                    ],
                    "text": "Height"
                },
                "valueQuantity": {
                    "value": 178,
                    "units": "cm",
                    "code": "cm",
                    "system": "http://unitsofmeasure.org"
                },
                "issued": "2014-08-06",
                "status": "final",
                "reliability": "ok",
                "extension": [
                    {
                        "url": "http://amida.com/fhir/Profile/extensions#observation-type",
                        "valueCoding": {
                            "code": "8716-3",
                            "display": "Vital signs",
                            "system": "http://loinc.org"
                        }
                    }
                ]
            }
        },
        {
            "id": "Observation/fc319556-aea3-4821-9f8a-83139879689f",
            "content": {
                "resourceType": "Observation",
                "name": {
                    "coding": [
                        {
                            "system": "http://loinc.org",
                            "code": "3141-9",
                            "display": "Weight"
                        }
                    ],
                    "text": "Weight"
                },
                "valueQuantity": {
                    "value": 82,
                    "units": "kg",
                    "code": "kg",
                    "system": "http://unitsofmeasure.org"
                },
                "issued": "2014-08-06",
                "status": "final",
                "reliability": "ok",
                "extension": [
                    {
                        "url": "http://amida.com/fhir/Profile/extensions#observation-type",
                        "valueCoding": {
                            "code": "8716-3",
                            "display": "Vital signs",
                            "system": "http://loinc.org"
                        }
                    }
                ]
            }
        },
        {
            "id": "Observation/6026773d-f924-45d9-957c-4142c775115a",
            "content": {
                "resourceType": "Observation",
                "name": {
                    "coding": [
                        {
                            "system": "http://loinc.org",
                            "code": "8480-6",
                            "display": "BP Systolic"
                        }
                    ],
                    "text": "BP Systolic"
                },
                "valueQuantity": {
                    "value": 150,
                    "units": "mm[Hg]",
                    "code": "mm[Hg]",
                    "system": "http://unitsofmeasure.org"
                },
                "issued": "2014-08-06",
                "status": "final",
                "reliability": "ok",
                "extension": [
                    {
                        "url": "http://amida.com/fhir/Profile/extensions#observation-type",
                        "valueCoding": {
                            "code": "8716-3",
                            "display": "Vital signs",
                            "system": "http://loinc.org"
                        }
                    }
                ]
            }
        },
        {
            "id": "Observation/c4810431-b9d6-4699-a0a2-c158cb3e0a19",
            "content": {
                "resourceType": "Observation",
                "name": {
                    "coding": [
                        {
                            "system": "http://loinc.org",
                            "code": "8462-4",
                            "display": "BP Diastolic"
                        }
                    ],
                    "text": "BP Diastolic"
                },
                "valueQuantity": {
                    "value": 100,
                    "units": "mm[Hg]",
                    "code": "mm[Hg]",
                    "system": "http://unitsofmeasure.org"
                },
                "issued": "2014-08-06",
                "status": "final",
                "reliability": "ok",
                "extension": [
                    {
                        "url": "http://amida.com/fhir/Profile/extensions#observation-type",
                        "valueCoding": {
                            "code": "8716-3",
                            "display": "Vital signs",
                            "system": "http://loinc.org"
                        }
                    }
                ]
            }
        },
        {
            "id": "Observation/835dbb58-13b5-4e24-bf71-6ef69661c543",
            "content": {
                "resourceType": "Observation",
                "name": {
                    "coding": [
                        {
                            "system": "http://loinc.org",
                            "code": "39156-5",
                            "display": "Body Mass Index Calculated"
                        }
                    ],
                    "text": "Body Mass Index Calculated"
                },
                "valueQuantity": {
                    "value": 25.9
                },
                "issued": "2014-08-06",
                "status": "final",
                "reliability": "ok",
                "extension": [
                    {
                        "url": "http://amida.com/fhir/Profile/extensions#observation-type",
                        "valueCoding": {
                            "code": "8716-3",
                            "display": "Vital signs",
                            "system": "http://loinc.org"
                        }
                    }
                ]
            }
        },
        {
            "id": "Observation/8b39d9c0-62a9-4a92-9c81-4e81aebe0b85",
            "content": {
                "resourceType": "Observation",
                "name": {
                    "coding": [
                        {
                            "system": "http://loinc.org",
                            "code": "55418-8",
                            "display": "Weight and Height tracking panel"
                        }
                    ],
                    "text": "Weight and Height tracking panel"
                },
                "issued": "2014-08-06",
                "status": "final",
                "reliability": "ok",
                "extension": [
                    {
                        "url": "http://amida.com/fhir/Profile/extensions#observation-type",
                        "valueCoding": {
                            "code": "8716-3",
                            "display": "Vital signs",
                            "system": "http://loinc.org"
                        }
                    }
                ],
                "related": [
                    {
                        "type": "has-component",
                        "target": {
                            "reference": "Observation/923d5316-119b-499b-8ef0-7be011e0deae"
                        }
                    },
                    {
                        "type": "has-component",
                        "target": {
                            "reference": "Observation/fc319556-aea3-4821-9f8a-83139879689f"
                        }
                    },
                    {
                        "type": "has-component",
                        "target": {
                            "reference": "Observation/835dbb58-13b5-4e24-bf71-6ef69661c543"
                        }
                    }
                ]
            }
        },
        {
            "id": "Observation/f448c2b8-efb3-417f-aea6-f4e529e61637",
            "content": {
                "resourceType": "Observation",
                "name": {
                    "coding": [
                        {
                            "system": "http://loinc.org",
                            "code": "35094-2",
                            "display": "Blood pressure panel"
                        }
                    ],
                    "text": "Blood pressure panel"
                },
                "issued": "2014-08-06",
                "status": "final",
                "reliability": "ok",
                "extension": [
                    {
                        "url": "http://amida.com/fhir/Profile/extensions#observation-type",
                        "valueCoding": {
                            "code": "8716-3",
                            "display": "Vital signs",
                            "system": "http://loinc.org"
                        }
                    }
                ],
                "related": [
                    {
                        "type": "has-component",
                        "target": {
                            "reference": "Observation/6026773d-f924-45d9-957c-4142c775115a"
                        }
                    },
                    {
                        "type": "has-component",
                        "target": {
                            "reference": "Observation/c4810431-b9d6-4699-a0a2-c158cb3e0a19"
                        }
                    }
                ]
            }
        },
        {
            "id": "Condition/b9beb1df-ed4c-4c30-b124-6391fe478ad1",
            "content": {
                "resourceType": "Condition",
                "status": "confirmed",
                "onsetDate": "2014-08-06",
                "dateAsserted": "2014-08-06",
                "code": {
                    "coding": [
                        {
                            "system": "http://snomed.info/sct",
                            "code": "233604007",
                            "display": "Pneumonia"
                        }
                    ],
                    "text": "Pneumonia"
                }
            }
        },
        {
            "id": "Condition/108c76f9-72a6-41ee-9f97-f57927109407",
            "content": {
                "resourceType": "Condition",
                "status": "confirmed",
                "onsetDate": "2014-05-01",
                "dateAsserted": "2014-05-01",
                "code": {
                    "coding": [
                        {
                            "system": "http://snomed.info/sct",
                            "code": "38341003",
                            "display": "Hypertension"
                        }
                    ],
                    "text": "Hypertension"
                }
            }
        },
        {
            "id": "Condition/4e5d5ff1-5a75-480f-8cf6-0256b98555d7",
            "content": {
                "resourceType": "Condition",
                "status": "confirmed",
                "onsetDate": "2014-01-03",
                "dateAsserted": "2014-01-03",
                "code": {
                    "coding": [
                        {
                            "system": "http://snomed.info/sct",
                            "code": "195967001",
                            "display": "Asthma"
                        }
                    ],
                    "text": "Asthma"
                }
            }
        },
        {
            "id": "Observation/f85a5b6c-1b92-4b44-a490-205855e79be1",
            "content": {
                "resourceType": "Observation",
                "name": {
                    "coding": [
                        {
                            "system": "http://loinc.org",
                            "code": "2947-0",
                            "display": "Na"
                        }
                    ],
                    "text": "Na"
                },
                "valueQuantity": {
                    "value": 135,
                    "units": "mmol/L",
                    "code": "mmol/L",
                    "system": "http://unitsofmeasure.org"
                },
                "issued": "2014-08-06",
                "status": "final",
                "reliability": "ok",
                "extension": [
                    {
                        "url": "http://amida.com/fhir/Profile/extensions#observation-type",
                        "valueCoding": {
                            "code": "11502-2",
                            "display": "Laboratory report",
                            "system": "http://loinc.org"
                        }
                    }
                ]
            }
        },
        {
            "id": "Observation/6fc76fa6-e3d3-419a-8c1c-10a7982e9c32",
            "content": {
                "resourceType": "Observation",
                "name": {
                    "coding": [
                        {
                            "system": "http://loinc.org",
                            "code": "6298-4",
                            "display": "K"
                        }
                    ],
                    "text": "K"
                },
                "valueQuantity": {
                    "value": 3.5,
                    "units": "mmol/L",
                    "code": "mmol/L",
                    "system": "http://unitsofmeasure.org"
                },
                "issued": "2014-08-06",
                "status": "final",
                "reliability": "ok",
                "extension": [
                    {
                        "url": "http://amida.com/fhir/Profile/extensions#observation-type",
                        "valueCoding": {
                            "code": "11502-2",
                            "display": "Laboratory report",
                            "system": "http://loinc.org"
                        }
                    }
                ]
            }
        },
        {
            "id": "Observation/3c1bc4fb-9f13-4214-88d3-f1f06894dd79",
            "content": {
                "resourceType": "Observation",
                "name": {
                    "coding": [
                        {
                            "system": "http://loinc.org",
                            "code": "2069-3",
                            "display": "Cl"
                        }
                    ],
                    "text": "Cl"
                },
                "valueQuantity": {
                    "value": 110,
                    "units": "mmol/L",
                    "code": "mmol/L",
                    "system": "http://unitsofmeasure.org"
                },
                "issued": "2014-08-06",
                "status": "final",
                "reliability": "ok",
                "extension": [
                    {
                        "url": "http://amida.com/fhir/Profile/extensions#observation-type",
                        "valueCoding": {
                            "code": "11502-2",
                            "display": "Laboratory report",
                            "system": "http://loinc.org"
                        }
                    }
                ]
            }
        },
        {
            "id": "Observation/77fdba4f-a332-4cae-bb5f-bf577818f9bd",
            "content": {
                "resourceType": "Observation",
                "name": {
                    "coding": [
                        {
                            "system": "http://loinc.org",
                            "code": "2028-9",
                            "display": "CO2"
                        }
                    ],
                    "text": "CO2"
                },
                "valueQuantity": {
                    "value": 25,
                    "units": "mmol/L",
                    "code": "mmol/L",
                    "system": "http://unitsofmeasure.org"
                },
                "issued": "2014-08-06",
                "status": "final",
                "reliability": "ok",
                "extension": [
                    {
                        "url": "http://amida.com/fhir/Profile/extensions#observation-type",
                        "valueCoding": {
                            "code": "11502-2",
                            "display": "Laboratory report",
                            "system": "http://loinc.org"
                        }
                    }
                ]
            }
        },
        {
            "id": "Observation/ec60dfaf-4a2b-4a89-acf3-49285108dd4f",
            "content": {
                "resourceType": "Observation",
                "name": {
                    "coding": [
                        {
                            "system": "http://loinc.org",
                            "code": "6299-2",
                            "display": "BUN"
                        }
                    ],
                    "text": "BUN"
                },
                "valueQuantity": {
                    "value": 25,
                    "units": "mg/dL",
                    "code": "mg/dL",
                    "system": "http://unitsofmeasure.org"
                },
                "issued": "2014-08-06",
                "status": "final",
                "reliability": "ok",
                "extension": [
                    {
                        "url": "http://amida.com/fhir/Profile/extensions#observation-type",
                        "valueCoding": {
                            "code": "11502-2",
                            "display": "Laboratory report",
                            "system": "http://loinc.org"
                        }
                    }
                ]
            }
        },
        {
            "id": "Observation/1dfc0aae-9769-4ddf-9820-7c0e0e10f75a",
            "content": {
                "resourceType": "Observation",
                "name": {
                    "coding": [
                        {
                            "system": "http://loinc.org",
                            "code": "38483-4",
                            "display": "Cr"
                        }
                    ],
                    "text": "Cr"
                },
                "valueQuantity": {
                    "value": 1,
                    "units": "mg/dL",
                    "code": "mg/dL",
                    "system": "http://unitsofmeasure.org"
                },
                "issued": "2014-08-06",
                "status": "final",
                "reliability": "ok",
                "extension": [
                    {
                        "url": "http://amida.com/fhir/Profile/extensions#observation-type",
                        "valueCoding": {
                            "code": "11502-2",
                            "display": "Laboratory report",
                            "system": "http://loinc.org"
                        }
                    }
                ]
            }
        },
        {
            "id": "Observation/16eb1d8f-df53-45a5-9f92-1b6ec71c3f23",
            "content": {
                "resourceType": "Observation",
                "name": {
                    "coding": [
                        {
                            "system": "http://loinc.org",
                            "code": "2339-0",
                            "display": "Glu"
                        }
                    ],
                    "text": "Glu"
                },
                "valueQuantity": {
                    "value": 199,
                    "units": "mg/dL",
                    "code": "mg/dL",
                    "system": "http://unitsofmeasure.org"
                },
                "issued": "2014-08-06",
                "status": "final",
                "reliability": "ok",
                "extension": [
                    {
                        "url": "http://amida.com/fhir/Profile/extensions#observation-type",
                        "valueCoding": {
                            "code": "11502-2",
                            "display": "Laboratory report",
                            "system": "http://loinc.org"
                        }
                    }
                ]
            }
        },
        {
            "id": "Observation/6793808e-f758-4600-b5c0-1ed661fa21d7",
            "content": {
                "resourceType": "Observation",
                "name": {
                    "coding": [
                        {
                            "system": "http://loinc.org",
                            "code": "24321-2",
                            "display": "BMP"
                        }
                    ],
                    "text": "BMP"
                },
                "status": "final",
                "reliability": "ok",
                "related": [
                    {
                        "type": "has-component",
                        "target": {
                            "reference": "Observation/f85a5b6c-1b92-4b44-a490-205855e79be1"
                        }
                    },
                    {
                        "type": "has-component",
                        "target": {
                            "reference": "Observation/6fc76fa6-e3d3-419a-8c1c-10a7982e9c32"
                        }
                    },
                    {
                        "type": "has-component",
                        "target": {
                            "reference": "Observation/3c1bc4fb-9f13-4214-88d3-f1f06894dd79"
                        }
                    },
                    {
                        "type": "has-component",
                        "target": {
                            "reference": "Observation/77fdba4f-a332-4cae-bb5f-bf577818f9bd"
                        }
                    },
                    {
                        "type": "has-component",
                        "target": {
                            "reference": "Observation/ec60dfaf-4a2b-4a89-acf3-49285108dd4f"
                        }
                    },
                    {
                        "type": "has-component",
                        "target": {
                            "reference": "Observation/1dfc0aae-9769-4ddf-9820-7c0e0e10f75a"
                        }
                    },
                    {
                        "type": "has-component",
                        "target": {
                            "reference": "Observation/16eb1d8f-df53-45a5-9f92-1b6ec71c3f23"
                        }
                    }
                ],
                "extension": [
                    {
                        "url": "http://amida.com/fhir/Profile/extensions#observation-type",
                        "valueCoding": {
                            "code": "11502-2",
                            "display": "Laboratory report",
                            "system": "http://loinc.org"
                        }
                    }
                ]
            }
        },
        {
            "id": "Observation/c73b1423-1be3-47d6-8b37-1f665fd23fff",
            "content": {
                "resourceType": "Observation",
                "name": {
                    "coding": [
                        {
                            "system": "http://loinc.org",
                            "code": "6598-7",
                            "display": "Troponin T"
                        }
                    ],
                    "text": "Troponin T"
                },
                "valueQuantity": {
                    "value": 0.01,
                    "units": "ng/ml",
                    "code": "ng/ml",
                    "system": "http://unitsofmeasure.org"
                },
                "issued": "2014-08-06",
                "status": "final",
                "reliability": "ok",
                "extension": [
                    {
                        "url": "http://amida.com/fhir/Profile/extensions#observation-type",
                        "valueCoding": {
                            "code": "11502-2",
                            "display": "Laboratory report",
                            "system": "http://loinc.org"
                        }
                    }
                ]
            }
        },
        {
            "id": "Observation/45d95a2f-4d0b-4107-8a49-2e2fc9073ce0",
            "content": {
                "resourceType": "Observation",
                "name": {
                    "coding": [
                        {
                            "system": "http://loinc.org",
                            "code": "6598-7",
                            "display": "Troponin T"
                        }
                    ],
                    "text": "Troponin T"
                },
                "valueQuantity": {
                    "value": 0.01,
                    "units": "ng/ml",
                    "code": "ng/ml",
                    "system": "http://unitsofmeasure.org"
                },
                "issued": "2014-08-06",
                "status": "final",
                "reliability": "ok",
                "extension": [
                    {
                        "url": "http://amida.com/fhir/Profile/extensions#observation-type",
                        "valueCoding": {
                            "code": "11502-2",
                            "display": "Laboratory report",
                            "system": "http://loinc.org"
                        }
                    }
                ]
            }
        },
        {
            "id": "MedicationPrescription/406ac3c2-9370-455a-ba58-417e6573e7ce",
            "content": {
                "resourceType": "MedicationPrescription",
                "status": "active",
                "dateWritten": "2014-08-06",
                "dosageInstruction": [
                    {
                        "route": {
                            "coding": [
                                {
                                    "system": "urn:oid:2.16.840.1.113883.3.26.1.1",
                                    "code": "C38276",
                                    "display": "INTRAVENOUS"
                                }
                            ],
                            "text": "INTRAVENOUS"
                        },
                        "doseQuantity": {
                            "value": 2,
                            "units": "Grams",
                            "code": "Grams",
                            "system": "http://unitsofmeasure.org"
                        },
                        "timingSchedule": {
                            "event": [
                                {
                                    "start": "2014-08-06"
                                }
                            ],
                            "repeat": {
                                "frequency": 1,
                                "duration": 24,
                                "units": "h"
                            }
                        }
                    }
                ],
                "contained": [
                    {
                        "id": "med",
                        "resourceType": "Medication",
                        "name": "Ceftriaxone 2 grams IV",
                        "code": {
                            "coding": [
                                {
                                    "system": "http://www.nlm.nih.gov/research/umls/rxnorm",
                                    "code": "1152108",
                                    "display": "Ceftriaxone 2 grams IV"
                                }
                            ],
                            "text": "Ceftriaxone 2 grams IV"
                        }
                    }
                ],
                "medication": {
                    "reference": "#med",
                    "display": "Ceftriaxone 2 grams IV"
                }
            }
        },
        {
            "id": "MedicationPrescription/0dddad7f-6f7b-4dbe-84c5-c7245f78806d",
            "content": {
                "resourceType": "MedicationPrescription",
                "status": "active",
                "dateWritten": "2014-08-06",
                "dosageInstruction": [
                    {
                        "doseQuantity": {
                            "value": 2.5,
                            "units": "mg/3ml",
                            "code": "mg/3ml",
                            "system": "http://unitsofmeasure.org"
                        },
                        "timingSchedule": {
                            "event": [
                                {
                                    "start": "2014-08-06"
                                }
                            ],
                            "repeat": {
                                "frequency": 1,
                                "duration": 8,
                                "units": "h"
                            }
                        }
                    }
                ],
                "contained": [
                    {
                        "id": "med",
                        "resourceType": "Medication",
                        "name": "Albuterol Inhaled 2.5mg/3ml NEB",
                        "code": {
                            "coding": [
                                {
                                    "system": "http://www.nlm.nih.gov/research/umls/rxnorm",
                                    "code": "1154602",
                                    "display": "Albuterol Inhaled 2.5mg/3ml NEB"
                                }
                            ],
                            "text": "Albuterol Inhaled 2.5mg/3ml NEB"
                        }
                    }
                ],
                "medication": {
                    "reference": "#med",
                    "display": "Albuterol Inhaled 2.5mg/3ml NEB"
                }
            }
        }
    ]
}