{
    "resourceType": "Bundle",
    "totalResults": 25,
    "entry": [
        {
            "id": "Patient/some-id-here-1987",
            "content": {
                "resourceType": "Patient",
                "identifier": [
                    {
                        "system": "http://www.midea-tecg.com",
                        "value": "JOE_DOE_IDENTIFIER"
                    }
                ],
                "name": [
                    {
                        "family": [
                            "DOE"
                        ],
                        "given": [
                            "JOE"
                        ]
                    }
                ]
            }
        },
        {
            "id": "AdverseReaction/5579c1af-ec35-47b3-b2ea-97892de71cdf",
            "content": {
                "resourceType": "AdverseReaction",
                "symptom": [
                    {
                        "code": {
                            "coding": [
                                {
                                    "system": "http://snomed.info/sct",
                                    "code": "247472004",
                                    "display": "Hives"
                                }
                            ],
                            "text": "Hives"
                        }
                    }
                ],
                "didNotOccurFlag": false,
                "subject": {
                    "reference": "Patient/some-id-here-1987",
                    "display": "DOE, JOE"
                }
            }
        },
        {
            "id": "AllergyIntolerance/72da178a-348a-47a5-8eea-b6deffd9fddf",
            "content": {
                "resourceType": "AllergyIntolerance",
                "sensitivityType": "allergy",
                "recordedDate": "2014-08-06",
                "status": "confirmed",
                "contained": [
                    {
                        "id": "allergen",
                        "resourceType": "Substance",
                        "type": {
                            "coding": [
                                {
                                    "system": "http://www.nlm.nih.gov/research/umls/rxnorm",
                                    "code": "1191",
                                    "display": "Aspirin"
                                }
                            ],
                            "text": "Aspirin"
                        }
                    }
                ],
                "substance": {
                    "reference": "#allergen",
                    "display": "Aspirin"
                },
                "reaction": [
                    {
                        "reference": "AdverseReaction/5579c1af-ec35-47b3-b2ea-97892de71cdf",
                        "display": "Hives"
                    }
                ],
                "subject": {
                    "reference": "Patient/some-id-here-1987",
                    "display": "DOE, JOE"
                }
            }
        },
        {
            "id": "Observation/f9c98b2c-9454-4edb-94b6-306b449c83d8",
            "content": {
                "resourceType": "Observation",
                "name": {
                    "coding": [
                        {
                            "system": "http://loinc.org",
                            "code": "8302-2",
                            "display": "Height"
                        }
                    ],
                    "text": "Height"
                },
                "valueQuantity": {
                    "value": 178,
                    "units": "cm",
                    "code": "cm",
                    "system": "http://unitsofmeasure.org"
                },
                "issued": "2014-08-06",
                "status": "final",
                "reliability": "ok",
                "extension": [
                    {
                        "url": "http://amida.com/fhir/Profile/extensions#observation-type",
                        "valueCoding": {
                            "code": "8716-3",
                            "display": "Vital signs",
                            "system": "http://loinc.org"
                        }
                    }
                ],
                "subject": {
                    "reference": "Patient/some-id-here-1987",
                    "display": "DOE, JOE"
                }
            }
        },
        {
            "id": "Observation/c3b9aebb-7075-42ad-9fef-6bc490de8f30",
            "content": {
                "resourceType": "Observation",
                "name": {
                    "coding": [
                        {
                            "system": "http://loinc.org",
                            "code": "3141-9",
                            "display": "Weight"
                        }
                    ],
                    "text": "Weight"
                },
                "valueQuantity": {
                    "value": 82,
                    "units": "kg",
                    "code": "kg",
                    "system": "http://unitsofmeasure.org"
                },
                "issued": "2014-08-06",
                "status": "final",
                "reliability": "ok",
                "extension": [
                    {
                        "url": "http://amida.com/fhir/Profile/extensions#observation-type",
                        "valueCoding": {
                            "code": "8716-3",
                            "display": "Vital signs",
                            "system": "http://loinc.org"
                        }
                    }
                ],
                "subject": {
                    "reference": "Patient/some-id-here-1987",
                    "display": "DOE, JOE"
                }
            }
        },
        {
            "id": "Observation/88a66e25-7e16-4233-9f77-0007e78c48b5",
            "content": {
                "resourceType": "Observation",
                "name": {
                    "coding": [
                        {
                            "system": "http://loinc.org",
                            "code": "8480-6",
                            "display": "BP Systolic"
                        }
                    ],
                    "text": "BP Systolic"
                },
                "valueQuantity": {
                    "value": 150,
                    "units": "mm[Hg]",
                    "code": "mm[Hg]",
                    "system": "http://unitsofmeasure.org"
                },
                "issued": "2014-08-06",
                "status": "final",
                "reliability": "ok",
                "extension": [
                    {
                        "url": "http://amida.com/fhir/Profile/extensions#observation-type",
                        "valueCoding": {
                            "code": "8716-3",
                            "display": "Vital signs",
                            "system": "http://loinc.org"
                        }
                    }
                ],
                "subject": {
                    "reference": "Patient/some-id-here-1987",
                    "display": "DOE, JOE"
                }
            }
        },
        {
            "id": "Observation/892e7d33-2f32-456d-95cb-460afbf21af0",
            "content": {
                "resourceType": "Observation",
                "name": {
                    "coding": [
                        {
                            "system": "http://loinc.org",
                            "code": "8462-4",
                            "display": "BP Diastolic"
                        }
                    ],
                    "text": "BP Diastolic"
                },
                "valueQuantity": {
                    "value": 100,
                    "units": "mm[Hg]",
                    "code": "mm[Hg]",
                    "system": "http://unitsofmeasure.org"
                },
                "issued": "2014-08-06",
                "status": "final",
                "reliability": "ok",
                "extension": [
                    {
                        "url": "http://amida.com/fhir/Profile/extensions#observation-type",
                        "valueCoding": {
                            "code": "8716-3",
                            "display": "Vital signs",
                            "system": "http://loinc.org"
                        }
                    }
                ],
                "subject": {
                    "reference": "Patient/some-id-here-1987",
                    "display": "DOE, JOE"
                }
            }
        },
        {
            "id": "Observation/a5016dd9-2c78-4aff-93ef-9edcc90ab23e",
            "content": {
                "resourceType": "Observation",
                "name": {
                    "coding": [
                        {
                            "system": "http://loinc.org",
                            "code": "39156-5",
                            "display": "Body Mass Index Calculated"
                        }
                    ],
                    "text": "Body Mass Index Calculated"
                },
                "valueQuantity": {
                    "value": 25.9
                },
                "issued": "2014-08-06",
                "status": "final",
                "reliability": "ok",
                "extension": [
                    {
                        "url": "http://amida.com/fhir/Profile/extensions#observation-type",
                        "valueCoding": {
                            "code": "8716-3",
                            "display": "Vital signs",
                            "system": "http://loinc.org"
                        }
                    }
                ],
                "subject": {
                    "reference": "Patient/some-id-here-1987",
                    "display": "DOE, JOE"
                }
            }
        },
        {
            "id": "Observation/a8f7137a-e284-4af1-9780-8b0e64c460c4",
            "content": {
                "resourceType": "Observation",
                "name": {
                    "coding": [
                        {
                            "system": "http://loinc.org",
                            "code": "55418-8",
                            "display": "Weight and Height tracking panel"
                        }
                    ],
                    "text": "Weight and Height tracking panel"
                },
                "issued": "2014-08-06",
                "status": "final",
                "reliability": "ok",
                "extension": [
                    {
                        "url": "http://amida.com/fhir/Profile/extensions#observation-type",
                        "valueCoding": {
                            "code": "8716-3",
                            "display": "Vital signs",
                            "system": "http://loinc.org"
                        }
                    }
                ],
                "related": [
                    {
                        "type": "has-component",
                        "target": {
                            "reference": "Observation/f9c98b2c-9454-4edb-94b6-306b449c83d8"
                        }
                    },
                    {
                        "type": "has-component",
                        "target": {
                            "reference": "Observation/c3b9aebb-7075-42ad-9fef-6bc490de8f30"
                        }
                    },
                    {
                        "type": "has-component",
                        "target": {
                            "reference": "Observation/a5016dd9-2c78-4aff-93ef-9edcc90ab23e"
                        }
                    }
                ],
                "subject": {
                    "reference": "Patient/some-id-here-1987",
                    "display": "DOE, JOE"
                }
            }
        },
        {
            "id": "Observation/879d2c93-6a80-46b8-bc00-d6472685a49d",
            "content": {
                "resourceType": "Observation",
                "name": {
                    "coding": [
                        {
                            "system": "http://loinc.org",
                            "code": "35094-2",
                            "display": "Blood pressure panel"
                        }
                    ],
                    "text": "Blood pressure panel"
                },
                "issued": "2014-08-06",
                "status": "final",
                "reliability": "ok",
                "extension": [
                    {
                        "url": "http://amida.com/fhir/Profile/extensions#observation-type",
                        "valueCoding": {
                            "code": "8716-3",
                            "display": "Vital signs",
                            "system": "http://loinc.org"
                        }
                    }
                ],
                "related": [
                    {
                        "type": "has-component",
                        "target": {
                            "reference": "Observation/88a66e25-7e16-4233-9f77-0007e78c48b5"
                        }
                    },
                    {
                        "type": "has-component",
                        "target": {
                            "reference": "Observation/892e7d33-2f32-456d-95cb-460afbf21af0"
                        }
                    }
                ],
                "subject": {
                    "reference": "Patient/some-id-here-1987",
                    "display": "DOE, JOE"
                }
            }
        },
        {
            "id": "Condition/288fcb59-23f3-4c46-9cfa-046f89fabeca",
            "content": {
                "resourceType": "Condition",
                "status": "confirmed",
                "onsetDate": "2014-08-06",
                "dateAsserted": "2014-08-06",
                "code": {
                    "coding": [
                        {
                            "system": "http://snomed.info/sct",
                            "code": "233604007",
                            "display": "Pneumonia"
                        }
                    ],
                    "text": "Pneumonia"
                },
                "subject": {
                    "reference": "Patient/some-id-here-1987",
                    "display": "DOE, JOE"
                }
            }
        },
        {
            "id": "Condition/b6a3f6dd-8c6d-4a32-91c2-3c2b2a7756de",
            "content": {
                "resourceType": "Condition",
                "status": "confirmed",
                "onsetDate": "2014-05-01",
                "dateAsserted": "2014-05-01",
                "code": {
                    "coding": [
                        {
                            "system": "http://snomed.info/sct",
                            "code": "38341003",
                            "display": "Hypertension"
                        }
                    ],
                    "text": "Hypertension"
                },
                "subject": {
                    "reference": "Patient/some-id-here-1987",
                    "display": "DOE, JOE"
                }
            }
        },
        {
            "id": "Condition/76b210fc-4369-4df6-a601-2479117803b8",
            "content": {
                "resourceType": "Condition",
                "status": "confirmed",
                "onsetDate": "2014-01-03",
                "dateAsserted": "2014-01-03",
                "code": {
                    "coding": [
                        {
                            "system": "http://snomed.info/sct",
                            "code": "195967001",
                            "display": "Asthma"
                        }
                    ],
                    "text": "Asthma"
                },
                "subject": {
                    "reference": "Patient/some-id-here-1987",
                    "display": "DOE, JOE"
                }
            }
        },
        {
            "id": "Observation/6ac49bea-184d-4cd2-95e1-6c418eef714d",
            "content": {
                "resourceType": "Observation",
                "name": {
                    "coding": [
                        {
                            "system": "http://loinc.org",
                            "code": "2947-0",
                            "display": "Na"
                        }
                    ],
                    "text": "Na"
                },
                "valueQuantity": {
                    "value": 135,
                    "units": "mmol/L",
                    "code": "mmol/L",
                    "system": "http://unitsofmeasure.org"
                },
                "issued": "2014-08-06",
                "status": "final",
                "reliability": "ok",
                "extension": [
                    {
                        "url": "http://amida.com/fhir/Profile/extensions#observation-type",
                        "valueCoding": {
                            "code": "11502-2",
                            "display": "Laboratory report",
                            "system": "http://loinc.org"
                        }
                    }
                ],
                "subject": {
                    "reference": "Patient/some-id-here-1987",
                    "display": "DOE, JOE"
                }
            }
        },
        {
            "id": "Observation/e30e4f0c-c5e2-41e3-a7e3-7035f66c1995",
            "content": {
                "resourceType": "Observation",
                "name": {
                    "coding": [
                        {
                            "system": "http://loinc.org",
                            "code": "6298-4",
                            "display": "K"
                        }
                    ],
                    "text": "K"
                },
                "valueQuantity": {
                    "value": 3.5,
                    "units": "mmol/L",
                    "code": "mmol/L",
                    "system": "http://unitsofmeasure.org"
                },
                "issued": "2014-08-06",
                "status": "final",
                "reliability": "ok",
                "extension": [
                    {
                        "url": "http://amida.com/fhir/Profile/extensions#observation-type",
                        "valueCoding": {
                            "code": "11502-2",
                            "display": "Laboratory report",
                            "system": "http://loinc.org"
                        }
                    }
                ],
                "subject": {
                    "reference": "Patient/some-id-here-1987",
                    "display": "DOE, JOE"
                }
            }
        },
        {
            "id": "Observation/7fe5d35f-8af8-4cc1-8fd2-53c740c07e84",
            "content": {
                "resourceType": "Observation",
                "name": {
                    "coding": [
                        {
                            "system": "http://loinc.org",
                            "code": "2069-3",
                            "display": "Cl"
                        }
                    ],
                    "text": "Cl"
                },
                "valueQuantity": {
                    "value": 110,
                    "units": "mmol/L",
                    "code": "mmol/L",
                    "system": "http://unitsofmeasure.org"
                },
                "issued": "2014-08-06",
                "status": "final",
                "reliability": "ok",
                "extension": [
                    {
                        "url": "http://amida.com/fhir/Profile/extensions#observation-type",
                        "valueCoding": {
                            "code": "11502-2",
                            "display": "Laboratory report",
                            "system": "http://loinc.org"
                        }
                    }
                ],
                "subject": {
                    "reference": "Patient/some-id-here-1987",
                    "display": "DOE, JOE"
                }
            }
        },
        {
            "id": "Observation/f668eed0-5636-437f-a100-eb456f1660b8",
            "content": {
                "resourceType": "Observation",
                "name": {
                    "coding": [
                        {
                            "system": "http://loinc.org",
                            "code": "2028-9",
                            "display": "CO2"
                        }
                    ],
                    "text": "CO2"
                },
                "valueQuantity": {
                    "value": 25,
                    "units": "mmol/L",
                    "code": "mmol/L",
                    "system": "http://unitsofmeasure.org"
                },
                "issued": "2014-08-06",
                "status": "final",
                "reliability": "ok",
                "extension": [
                    {
                        "url": "http://amida.com/fhir/Profile/extensions#observation-type",
                        "valueCoding": {
                            "code": "11502-2",
                            "display": "Laboratory report",
                            "system": "http://loinc.org"
                        }
                    }
                ],
                "subject": {
                    "reference": "Patient/some-id-here-1987",
                    "display": "DOE, JOE"
                }
            }
        },
        {
            "id": "Observation/30ebff8e-a47a-4583-956d-2b81a6c5b229",
            "content": {
                "resourceType": "Observation",
                "name": {
                    "coding": [
                        {
                            "system": "http://loinc.org",
                            "code": "6299-2",
                            "display": "BUN"
                        }
                    ],
                    "text": "BUN"
                },
                "valueQuantity": {
                    "value": 25,
                    "units": "mg/dL",
                    "code": "mg/dL",
                    "system": "http://unitsofmeasure.org"
                },
                "issued": "2014-08-06",
                "status": "final",
                "reliability": "ok",
                "extension": [
                    {
                        "url": "http://amida.com/fhir/Profile/extensions#observation-type",
                        "valueCoding": {
                            "code": "11502-2",
                            "display": "Laboratory report",
                            "system": "http://loinc.org"
                        }
                    }
                ],
                "subject": {
                    "reference": "Patient/some-id-here-1987",
                    "display": "DOE, JOE"
                }
            }
        },
        {
            "id": "Observation/262175ed-bfd4-4b5f-a429-29b992cf996f",
            "content": {
                "resourceType": "Observation",
                "name": {
                    "coding": [
                        {
                            "system": "http://loinc.org",
                            "code": "38483-4",
                            "display": "Cr"
                        }
                    ],
                    "text": "Cr"
                },
                "valueQuantity": {
                    "value": 1,
                    "units": "mg/dL",
                    "code": "mg/dL",
                    "system": "http://unitsofmeasure.org"
                },
                "issued": "2014-08-06",
                "status": "final",
                "reliability": "ok",
                "extension": [
                    {
                        "url": "http://amida.com/fhir/Profile/extensions#observation-type",
                        "valueCoding": {
                            "code": "11502-2",
                            "display": "Laboratory report",
                            "system": "http://loinc.org"
                        }
                    }
                ],
                "subject": {
                    "reference": "Patient/some-id-here-1987",
                    "display": "DOE, JOE"
                }
            }
        },
        {
            "id": "Observation/c7d47f6a-e9b5-46f3-a39c-a456539f1a42",
            "content": {
                "resourceType": "Observation",
                "name": {
                    "coding": [
                        {
                            "system": "http://loinc.org",
                            "code": "2339-0",
                            "display": "Glu"
                        }
                    ],
                    "text": "Glu"
                },
                "valueQuantity": {
                    "value": 199,
                    "units": "mg/dL",
                    "code": "mg/dL",
                    "system": "http://unitsofmeasure.org"
                },
                "issued": "2014-08-06",
                "status": "final",
                "reliability": "ok",
                "extension": [
                    {
                        "url": "http://amida.com/fhir/Profile/extensions#observation-type",
                        "valueCoding": {
                            "code": "11502-2",
                            "display": "Laboratory report",
                            "system": "http://loinc.org"
                        }
                    }
                ],
                "subject": {
                    "reference": "Patient/some-id-here-1987",
                    "display": "DOE, JOE"
                }
            }
        },
        {
            "id": "Observation/2b1d49d8-3170-4ad7-a788-cee7fd43c1c0",
            "content": {
                "resourceType": "Observation",
                "name": {
                    "coding": [
                        {
                            "system": "http://loinc.org",
                            "code": "24321-2",
                            "display": "BMP"
                        }
                    ],
                    "text": "BMP"
                },
                "status": "final",
                "reliability": "ok",
                "related": [
                    {
                        "type": "has-component",
                        "target": {
                            "reference": "Observation/6ac49bea-184d-4cd2-95e1-6c418eef714d"
                        }
                    },
                    {
                        "type": "has-component",
                        "target": {
                            "reference": "Observation/e30e4f0c-c5e2-41e3-a7e3-7035f66c1995"
                        }
                    },
                    {
                        "type": "has-component",
                        "target": {
                            "reference": "Observation/7fe5d35f-8af8-4cc1-8fd2-53c740c07e84"
                        }
                    },
                    {
                        "type": "has-component",
                        "target": {
                            "reference": "Observation/f668eed0-5636-437f-a100-eb456f1660b8"
                        }
                    },
                    {
                        "type": "has-component",
                        "target": {
                            "reference": "Observation/30ebff8e-a47a-4583-956d-2b81a6c5b229"
                        }
                    },
                    {
                        "type": "has-component",
                        "target": {
                            "reference": "Observation/262175ed-bfd4-4b5f-a429-29b992cf996f"
                        }
                    },
                    {
                        "type": "has-component",
                        "target": {
                            "reference": "Observation/c7d47f6a-e9b5-46f3-a39c-a456539f1a42"
                        }
                    }
                ],
                "extension": [
                    {
                        "url": "http://amida.com/fhir/Profile/extensions#observation-type",
                        "valueCoding": {
                            "code": "11502-2",
                            "display": "Laboratory report",
                            "system": "http://loinc.org"
                        }
                    }
                ],
                "subject": {
                    "reference": "Patient/some-id-here-1987",
                    "display": "DOE, JOE"
                }
            }
        },
        {
            "id": "Observation/d59e4724-ae69-4f45-9dad-b4bb28373ada",
            "content": {
                "resourceType": "Observation",
                "name": {
                    "coding": [
                        {
                            "system": "http://loinc.org",
                            "code": "6598-7",
                            "display": "Troponin T"
                        }
                    ],
                    "text": "Troponin T"
                },
                "valueQuantity": {
                    "value": 0.01,
                    "units": "ng/ml",
                    "code": "ng/ml",
                    "system": "http://unitsofmeasure.org"
                },
                "issued": "2014-08-06",
                "status": "final",
                "reliability": "ok",
                "extension": [
                    {
                        "url": "http://amida.com/fhir/Profile/extensions#observation-type",
                        "valueCoding": {
                            "code": "11502-2",
                            "display": "Laboratory report",
                            "system": "http://loinc.org"
                        }
                    }
                ],
                "subject": {
                    "reference": "Patient/some-id-here-1987",
                    "display": "DOE, JOE"
                }
            }
        },
        {
            "id": "Observation/e6d634dc-92ce-492a-9c53-adb7b45e990d",
            "content": {
                "resourceType": "Observation",
                "name": {
                    "coding": [
                        {
                            "system": "http://loinc.org",
                            "code": "6598-7",
                            "display": "Troponin T"
                        }
                    ],
                    "text": "Troponin T"
                },
                "valueQuantity": {
                    "value": 0.01,
                    "units": "ng/ml",
                    "code": "ng/ml",
                    "system": "http://unitsofmeasure.org"
                },
                "issued": "2014-08-06",
                "status": "final",
                "reliability": "ok",
                "extension": [
                    {
                        "url": "http://amida.com/fhir/Profile/extensions#observation-type",
                        "valueCoding": {
                            "code": "11502-2",
                            "display": "Laboratory report",
                            "system": "http://loinc.org"
                        }
                    }
                ],
                "subject": {
                    "reference": "Patient/some-id-here-1987",
                    "display": "DOE, JOE"
                }
            }
        },
        {
            "id": "MedicationPrescription/7dd521ab-3ece-4b40-9c2f-73005f8db228",
            "content": {
                "resourceType": "MedicationPrescription",
                "status": "active",
                "dateWritten": "2014-08-06",
                "dosageInstruction": [
                    {
                        "route": {
                            "coding": [
                                {
                                    "system": "urn:oid:2.16.840.1.113883.3.26.1.1",
                                    "code": "C38276",
                                    "display": "INTRAVENOUS"
                                }
                            ],
                            "text": "INTRAVENOUS"
                        },
                        "doseQuantity": {
                            "value": 2,
                            "units": "Grams",
                            "code": "Grams",
                            "system": "http://unitsofmeasure.org"
                        },
                        "timingSchedule": {
                            "event": [
                                {
                                    "start": "2014-08-06"
                                }
                            ],
                            "repeat": {
                                "frequency": 1,
                                "duration": 24,
                                "units": "h"
                            }
                        }
                    }
                ],
                "contained": [
                    {
                        "id": "med",
                        "resourceType": "Medication",
                        "name": "Ceftriaxone 2 grams IV",
                        "code": {
                            "coding": [
                                {
                                    "system": "http://www.nlm.nih.gov/research/umls/rxnorm",
                                    "code": "1152108",
                                    "display": "Ceftriaxone 2 grams IV"
                                }
                            ],
                            "text": "Ceftriaxone 2 grams IV"
                        }
                    }
                ],
                "medication": {
                    "reference": "#med",
                    "display": "Ceftriaxone 2 grams IV"
                },
                "patient": {
                    "reference": "Patient/some-id-here-1987",
                    "display": "DOE, JOE"
                }
            }
        },
        {
            "id": "MedicationPrescription/69503b9e-f5c4-4ddc-9985-7da2e79c6747",
            "content": {
                "resourceType": "MedicationPrescription",
                "status": "active",
                "dateWritten": "2014-08-06",
                "dosageInstruction": [
                    {
                        "doseQuantity": {
                            "value": 2.5,
                            "units": "mg/3ml",
                            "code": "mg/3ml",
                            "system": "http://unitsofmeasure.org"
                        },
                        "timingSchedule": {
                            "event": [
                                {
                                    "start": "2014-08-06"
                                }
                            ],
                            "repeat": {
                                "frequency": 1,
                                "duration": 8,
                                "units": "h"
                            }
                        }
                    }
                ],
                "contained": [
                    {
                        "id": "med",
                        "resourceType": "Medication",
                        "name": "Albuterol Inhaled 2.5mg/3ml NEB",
                        "code": {
                            "coding": [
                                {
                                    "system": "http://www.nlm.nih.gov/research/umls/rxnorm",
                                    "code": "1154602",
                                    "display": "Albuterol Inhaled 2.5mg/3ml NEB"
                                }
                            ],
                            "text": "Albuterol Inhaled 2.5mg/3ml NEB"
                        }
                    }
                ],
                "medication": {
                    "reference": "#med",
                    "display": "Albuterol Inhaled 2.5mg/3ml NEB"
                },
                "patient": {
                    "reference": "Patient/some-id-here-1987",
                    "display": "DOE, JOE"
                }
            }
        }
    ]
}