{
    "resourceType": "Bundle",
    "totalResults": 37,
    "entry": [
        {
            "id": "AdverseReaction/40babc4c-a5e2-42cd-a3ca-1e898084b494",
            "content": {
                "resourceType": "AdverseReaction",
                "symptom": [
                    {
                        "code": {
                            "coding": [
                                {
                                    "system": "http://snomed.info/sct",
                                    "code": "247472004",
                                    "display": "Hives"
                                }
                            ],
                            "text": "Hives"
                        }
                    }
                ],
                "didNotOccurFlag": false
            }
        },
        {
            "id": "AllergyIntolerance/73117bbc-4894-49a4-9423-b771596b7336",
            "content": {
                "resourceType": "AllergyIntolerance",
                "sensitivityType": "allergy",
                "recordedDate": "1998-01-10",
                "status": "confirmed",
                "contained": [
                    {
                        "id": "allergen",
                        "resourceType": "Substance",
                        "type": {
                            "coding": [
                                {
                                    "system": "http://www.nlm.nih.gov/research/umls/rxnorm",
                                    "code": "7982",
                                    "display": "Penicillin G benzathine"
                                }
                            ],
                            "text": "Penicillin G benzathine"
                        }
                    }
                ],
                "substance": {
                    "reference": "#allergen",
                    "display": "Penicillin G benzathine"
                },
                "reaction": [
                    {
                        "reference": "AdverseReaction/40babc4c-a5e2-42cd-a3ca-1e898084b494",
                        "display": "Hives"
                    }
                ]
            }
        },
        {
            "id": "AdverseReaction/ecb5bddc-70a4-4682-9b10-5f76fb5dd1e1",
            "content": {
                "resourceType": "AdverseReaction",
                "symptom": [
                    {
                        "code": {
                            "coding": [
                                {
                                    "system": "http://snomed.info/sct",
                                    "code": "65124004",
                                    "display": "Swelling"
                                }
                            ],
                            "text": "Swelling"
                        }
                    }
                ],
                "didNotOccurFlag": false
            }
        },
        {
            "id": "AllergyIntolerance/e98374b7-10de-4551-93c3-a147f54bd824",
            "content": {
                "resourceType": "AllergyIntolerance",
                "sensitivityType": "allergy",
                "recordedDate": "2011-01-10",
                "status": "confirmed",
                "contained": [
                    {
                        "id": "allergen",
                        "resourceType": "Substance",
                        "type": {
                            "coding": [
                                {
                                    "system": "http://www.nlm.nih.gov/research/umls/rxnorm",
                                    "code": "1191",
                                    "display": "Aspirin"
                                }
                            ],
                            "text": "Aspirin"
                        }
                    }
                ],
                "substance": {
                    "reference": "#allergen",
                    "display": "Aspirin"
                },
                "reaction": [
                    {
                        "reference": "AdverseReaction/ecb5bddc-70a4-4682-9b10-5f76fb5dd1e1",
                        "display": "Swelling"
                    }
                ]
            }
        },
        {
            "id": "Observation/4f4b02f1-1c6d-40f3-9d46-b95331de9bc4",
            "content": {
                "resourceType": "Observation",
                "name": {
                    "coding": [
                        {
                            "system": "http://loinc.org",
                            "code": "8302-2",
                            "display": "Height"
                        }
                    ],
                    "text": "Height"
                },
                "valueQuantity": {
                    "value": 74,
                    "units": "[in_us]",
                    "code": "[in_us]",
                    "system": "http://unitsofmeasure.org"
                },
                "issued": "2013-01-30",
                "status": "final",
                "reliability": "ok",
                "extension": [
                    {
                        "url": "http://amida.com/fhir/Profile/extensions#observation-type",
                        "valueCoding": {
                            "code": "8716-3",
                            "display": "Vital signs",
                            "system": "http://loinc.org"
                        }
                    }
                ]
            }
        },
        {
            "id": "Observation/94f9abdc-6fc0-49ac-82fe-74342a735f18",
            "content": {
                "resourceType": "Observation",
                "name": {
                    "coding": [
                        {
                            "system": "http://loinc.org",
                            "code": "3141-9",
                            "display": "Weight"
                        }
                    ],
                    "text": "Weight"
                },
                "valueQuantity": {
                    "value": 218,
                    "units": "[lb_av]",
                    "code": "[lb_av]",
                    "system": "http://unitsofmeasure.org"
                },
                "issued": "2013-01-30",
                "status": "final",
                "reliability": "ok",
                "extension": [
                    {
                        "url": "http://amida.com/fhir/Profile/extensions#observation-type",
                        "valueCoding": {
                            "code": "8716-3",
                            "display": "Vital signs",
                            "system": "http://loinc.org"
                        }
                    }
                ]
            }
        },
        {
            "id": "Observation/42e8e180-4eec-45cb-820f-b528ea845f6d",
            "content": {
                "resourceType": "Observation",
                "name": {
                    "coding": [
                        {
                            "system": "http://loinc.org",
                            "code": "8480-6",
                            "display": "BP Systolic"
                        }
                    ],
                    "text": "BP Systolic"
                },
                "valueQuantity": {
                    "value": 150,
                    "units": "mm[Hg]",
                    "code": "mm[Hg]",
                    "system": "http://unitsofmeasure.org"
                },
                "issued": "2013-01-30",
                "status": "final",
                "reliability": "ok",
                "extension": [
                    {
                        "url": "http://amida.com/fhir/Profile/extensions#observation-type",
                        "valueCoding": {
                            "code": "8716-3",
                            "display": "Vital signs",
                            "system": "http://loinc.org"
                        }
                    }
                ]
            }
        },
        {
            "id": "Observation/35517948-d570-44c3-8629-a2e75c4daa52",
            "content": {
                "resourceType": "Observation",
                "name": {
                    "coding": [
                        {
                            "system": "http://loinc.org",
                            "code": "8462-4",
                            "display": "BP Diastolic"
                        }
                    ],
                    "text": "BP Diastolic"
                },
                "valueQuantity": {
                    "value": 90,
                    "units": "mm[Hg]",
                    "code": "mm[Hg]",
                    "system": "http://unitsofmeasure.org"
                },
                "issued": "2013-01-30",
                "status": "final",
                "reliability": "ok",
                "extension": [
                    {
                        "url": "http://amida.com/fhir/Profile/extensions#observation-type",
                        "valueCoding": {
                            "code": "8716-3",
                            "display": "Vital signs",
                            "system": "http://loinc.org"
                        }
                    }
                ]
            }
        },
        {
            "id": "Observation/ff985348-6ce3-4dfd-80f9-f0e2954d6da8",
            "content": {
                "resourceType": "Observation",
                "name": {
                    "coding": [
                        {
                            "system": "http://loinc.org",
                            "code": "39156-5",
                            "display": "Body Mass Index Calculated"
                        }
                    ],
                    "text": "Body Mass Index Calculated"
                },
                "valueQuantity": {
                    "value": 28
                },
                "issued": "2013-01-30",
                "status": "final",
                "reliability": "ok",
                "extension": [
                    {
                        "url": "http://amida.com/fhir/Profile/extensions#observation-type",
                        "valueCoding": {
                            "code": "8716-3",
                            "display": "Vital signs",
                            "system": "http://loinc.org"
                        }
                    }
                ]
            }
        },
        {
            "id": "Observation/24428c0f-5363-41c1-8e9a-62637a0466a8",
            "content": {
                "resourceType": "Observation",
                "name": {
                    "coding": [
                        {
                            "system": "http://loinc.org",
                            "code": "8302-2",
                            "display": "Height"
                        }
                    ],
                    "text": "Height"
                },
                "valueQuantity": {
                    "value": 74,
                    "units": "[in_us]",
                    "code": "[in_us]",
                    "system": "http://unitsofmeasure.org"
                },
                "issued": "2011-11-01",
                "status": "final",
                "reliability": "ok",
                "extension": [
                    {
                        "url": "http://amida.com/fhir/Profile/extensions#observation-type",
                        "valueCoding": {
                            "code": "8716-3",
                            "display": "Vital signs",
                            "system": "http://loinc.org"
                        }
                    }
                ]
            }
        },
        {
            "id": "Observation/89e94fe6-dfe0-47f7-99cb-34e31b9c0179",
            "content": {
                "resourceType": "Observation",
                "name": {
                    "coding": [
                        {
                            "system": "http://loinc.org",
                            "code": "3141-9",
                            "display": "Weight"
                        }
                    ],
                    "text": "Weight"
                },
                "valueQuantity": {
                    "value": 218,
                    "units": "[lb_av]",
                    "code": "[lb_av]",
                    "system": "http://unitsofmeasure.org"
                },
                "issued": "2011-11-01",
                "status": "final",
                "reliability": "ok",
                "extension": [
                    {
                        "url": "http://amida.com/fhir/Profile/extensions#observation-type",
                        "valueCoding": {
                            "code": "8716-3",
                            "display": "Vital signs",
                            "system": "http://loinc.org"
                        }
                    }
                ]
            }
        },
        {
            "id": "Observation/e00ad160-ab1c-4d6e-ba80-59075086e0f5",
            "content": {
                "resourceType": "Observation",
                "name": {
                    "coding": [
                        {
                            "system": "http://loinc.org",
                            "code": "8480-6",
                            "display": "BP Systolic"
                        }
                    ],
                    "text": "BP Systolic"
                },
                "valueQuantity": {
                    "value": 141,
                    "units": "mm[Hg]",
                    "code": "mm[Hg]",
                    "system": "http://unitsofmeasure.org"
                },
                "issued": "2011-11-01",
                "status": "final",
                "reliability": "ok",
                "extension": [
                    {
                        "url": "http://amida.com/fhir/Profile/extensions#observation-type",
                        "valueCoding": {
                            "code": "8716-3",
                            "display": "Vital signs",
                            "system": "http://loinc.org"
                        }
                    }
                ]
            }
        },
        {
            "id": "Observation/9996eb1f-2749-4eb5-8dea-5bedb35c92fe",
            "content": {
                "resourceType": "Observation",
                "name": {
                    "coding": [
                        {
                            "system": "http://loinc.org",
                            "code": "8462-4",
                            "display": "BP Diastolic"
                        }
                    ],
                    "text": "BP Diastolic"
                },
                "valueQuantity": {
                    "value": 87,
                    "units": "mm[Hg]",
                    "code": "mm[Hg]",
                    "system": "http://unitsofmeasure.org"
                },
                "issued": "2011-11-01",
                "status": "final",
                "reliability": "ok",
                "extension": [
                    {
                        "url": "http://amida.com/fhir/Profile/extensions#observation-type",
                        "valueCoding": {
                            "code": "8716-3",
                            "display": "Vital signs",
                            "system": "http://loinc.org"
                        }
                    }
                ]
            }
        },
        {
            "id": "Observation/cdaa60ef-b677-4d48-993e-bff5fdd3e546",
            "content": {
                "resourceType": "Observation",
                "name": {
                    "coding": [
                        {
                            "system": "http://loinc.org",
                            "code": "39156-5",
                            "display": "Body Mass Index Calculated"
                        }
                    ],
                    "text": "Body Mass Index Calculated"
                },
                "valueQuantity": {
                    "value": 28
                },
                "issued": "2011-11-01",
                "status": "final",
                "reliability": "ok",
                "extension": [
                    {
                        "url": "http://amida.com/fhir/Profile/extensions#observation-type",
                        "valueCoding": {
                            "code": "8716-3",
                            "display": "Vital signs",
                            "system": "http://loinc.org"
                        }
                    }
                ]
            }
        },
        {
            "id": "Observation/ce30ba1d-1c0c-4955-8413-23ba7893b78c",
            "content": {
                "resourceType": "Observation",
                "name": {
                    "coding": [
                        {
                            "system": "http://loinc.org",
                            "code": "8302-2",
                            "display": "Height"
                        }
                    ],
                    "text": "Height"
                },
                "valueQuantity": {
                    "value": 74,
                    "units": "[in_us]",
                    "code": "[in_us]",
                    "system": "http://unitsofmeasure.org"
                },
                "issued": "2010-10-02",
                "status": "final",
                "reliability": "ok",
                "extension": [
                    {
                        "url": "http://amida.com/fhir/Profile/extensions#observation-type",
                        "valueCoding": {
                            "code": "8716-3",
                            "display": "Vital signs",
                            "system": "http://loinc.org"
                        }
                    }
                ]
            }
        },
        {
            "id": "Observation/dae6c7e6-8d5d-473c-9ae8-d0f915f283e4",
            "content": {
                "resourceType": "Observation",
                "name": {
                    "coding": [
                        {
                            "system": "http://loinc.org",
                            "code": "3141-9",
                            "display": "Weight"
                        }
                    ],
                    "text": "Weight"
                },
                "valueQuantity": {
                    "value": 205,
                    "units": "[lb_av]",
                    "code": "[lb_av]",
                    "system": "http://unitsofmeasure.org"
                },
                "issued": "2010-10-02",
                "status": "final",
                "reliability": "ok",
                "extension": [
                    {
                        "url": "http://amida.com/fhir/Profile/extensions#observation-type",
                        "valueCoding": {
                            "code": "8716-3",
                            "display": "Vital signs",
                            "system": "http://loinc.org"
                        }
                    }
                ]
            }
        },
        {
            "id": "Observation/4bb399b9-c555-43c7-96fe-f833423a9d9e",
            "content": {
                "resourceType": "Observation",
                "name": {
                    "coding": [
                        {
                            "system": "http://loinc.org",
                            "code": "8480-6",
                            "display": "BP Systolic"
                        }
                    ],
                    "text": "BP Systolic"
                },
                "valueQuantity": {
                    "value": 132,
                    "units": "mm[Hg]",
                    "code": "mm[Hg]",
                    "system": "http://unitsofmeasure.org"
                },
                "issued": "2010-11-01",
                "status": "final",
                "reliability": "ok",
                "extension": [
                    {
                        "url": "http://amida.com/fhir/Profile/extensions#observation-type",
                        "valueCoding": {
                            "code": "8716-3",
                            "display": "Vital signs",
                            "system": "http://loinc.org"
                        }
                    }
                ]
            }
        },
        {
            "id": "Observation/d6faaab7-7024-41e6-a0d3-1d10fc18cc30",
            "content": {
                "resourceType": "Observation",
                "name": {
                    "coding": [
                        {
                            "system": "http://loinc.org",
                            "code": "8462-4",
                            "display": "BP Diastolic"
                        }
                    ],
                    "text": "BP Diastolic"
                },
                "valueQuantity": {
                    "value": 86,
                    "units": "mm[Hg]",
                    "code": "mm[Hg]",
                    "system": "http://unitsofmeasure.org"
                },
                "issued": "2010-11-01",
                "status": "final",
                "reliability": "ok",
                "extension": [
                    {
                        "url": "http://amida.com/fhir/Profile/extensions#observation-type",
                        "valueCoding": {
                            "code": "8716-3",
                            "display": "Vital signs",
                            "system": "http://loinc.org"
                        }
                    }
                ]
            }
        },
        {
            "id": "Observation/c8595b0d-adb0-4cf5-b4dd-99d798768992",
            "content": {
                "resourceType": "Observation",
                "name": {
                    "coding": [
                        {
                            "system": "http://loinc.org",
                            "code": "39156-5",
                            "display": "Body Mass Index Calculated"
                        }
                    ],
                    "text": "Body Mass Index Calculated"
                },
                "valueQuantity": {
                    "value": 26.3
                },
                "issued": "2010-10-02",
                "status": "final",
                "reliability": "ok",
                "extension": [
                    {
                        "url": "http://amida.com/fhir/Profile/extensions#observation-type",
                        "valueCoding": {
                            "code": "8716-3",
                            "display": "Vital signs",
                            "system": "http://loinc.org"
                        }
                    }
                ]
            }
        },
        {
            "id": "Observation/a834d6e1-2f2b-4864-bb83-30fd694ea5fa",
            "content": {
                "resourceType": "Observation",
                "name": {
                    "coding": [
                        {
                            "system": "http://loinc.org",
                            "code": "55418-8",
                            "display": "Weight and Height tracking panel"
                        }
                    ],
                    "text": "Weight and Height tracking panel"
                },
                "issued": "2010-10-02",
                "status": "final",
                "reliability": "ok",
                "extension": [
                    {
                        "url": "http://amida.com/fhir/Profile/extensions#observation-type",
                        "valueCoding": {
                            "code": "8716-3",
                            "display": "Vital signs",
                            "system": "http://loinc.org"
                        }
                    }
                ],
                "related": [
                    {
                        "type": "has-component",
                        "target": {
                            "reference": "Observation/ce30ba1d-1c0c-4955-8413-23ba7893b78c"
                        }
                    },
                    {
                        "type": "has-component",
                        "target": {
                            "reference": "Observation/dae6c7e6-8d5d-473c-9ae8-d0f915f283e4"
                        }
                    },
                    {
                        "type": "has-component",
                        "target": {
                            "reference": "Observation/c8595b0d-adb0-4cf5-b4dd-99d798768992"
                        }
                    }
                ]
            }
        },
        {
            "id": "Observation/53ee1d87-6444-42ba-a6e7-75aa10b17540",
            "content": {
                "resourceType": "Observation",
                "name": {
                    "coding": [
                        {
                            "system": "http://loinc.org",
                            "code": "55418-8",
                            "display": "Weight and Height tracking panel"
                        }
                    ],
                    "text": "Weight and Height tracking panel"
                },
                "issued": "2011-11-01",
                "status": "final",
                "reliability": "ok",
                "extension": [
                    {
                        "url": "http://amida.com/fhir/Profile/extensions#observation-type",
                        "valueCoding": {
                            "code": "8716-3",
                            "display": "Vital signs",
                            "system": "http://loinc.org"
                        }
                    }
                ],
                "related": [
                    {
                        "type": "has-component",
                        "target": {
                            "reference": "Observation/24428c0f-5363-41c1-8e9a-62637a0466a8"
                        }
                    },
                    {
                        "type": "has-component",
                        "target": {
                            "reference": "Observation/89e94fe6-dfe0-47f7-99cb-34e31b9c0179"
                        }
                    },
                    {
                        "type": "has-component",
                        "target": {
                            "reference": "Observation/cdaa60ef-b677-4d48-993e-bff5fdd3e546"
                        }
                    }
                ]
            }
        },
        {
            "id": "Observation/8042074b-b58b-42e6-8002-ebf7750b5e20",
            "content": {
                "resourceType": "Observation",
                "name": {
                    "coding": [
                        {
                            "system": "http://loinc.org",
                            "code": "55418-8",
                            "display": "Weight and Height tracking panel"
                        }
                    ],
                    "text": "Weight and Height tracking panel"
                },
                "issued": "2013-01-30",
                "status": "final",
                "reliability": "ok",
                "extension": [
                    {
                        "url": "http://amida.com/fhir/Profile/extensions#observation-type",
                        "valueCoding": {
                            "code": "8716-3",
                            "display": "Vital signs",
                            "system": "http://loinc.org"
                        }
                    }
                ],
                "related": [
                    {
                        "type": "has-component",
                        "target": {
                            "reference": "Observation/4f4b02f1-1c6d-40f3-9d46-b95331de9bc4"
                        }
                    },
                    {
                        "type": "has-component",
                        "target": {
                            "reference": "Observation/94f9abdc-6fc0-49ac-82fe-74342a735f18"
                        }
                    },
                    {
                        "type": "has-component",
                        "target": {
                            "reference": "Observation/ff985348-6ce3-4dfd-80f9-f0e2954d6da8"
                        }
                    }
                ]
            }
        },
        {
            "id": "Observation/be4c1322-70c3-4795-95f8-2e55cdec64e0",
            "content": {
                "resourceType": "Observation",
                "name": {
                    "coding": [
                        {
                            "system": "http://loinc.org",
                            "code": "35094-2",
                            "display": "Blood pressure panel"
                        }
                    ],
                    "text": "Blood pressure panel"
                },
                "issued": "2010-11-01",
                "status": "final",
                "reliability": "ok",
                "extension": [
                    {
                        "url": "http://amida.com/fhir/Profile/extensions#observation-type",
                        "valueCoding": {
                            "code": "8716-3",
                            "display": "Vital signs",
                            "system": "http://loinc.org"
                        }
                    }
                ],
                "related": [
                    {
                        "type": "has-component",
                        "target": {
                            "reference": "Observation/4bb399b9-c555-43c7-96fe-f833423a9d9e"
                        }
                    },
                    {
                        "type": "has-component",
                        "target": {
                            "reference": "Observation/d6faaab7-7024-41e6-a0d3-1d10fc18cc30"
                        }
                    }
                ]
            }
        },
        {
            "id": "Observation/881f02c8-355b-4846-a0ae-1326471b12cc",
            "content": {
                "resourceType": "Observation",
                "name": {
                    "coding": [
                        {
                            "system": "http://loinc.org",
                            "code": "35094-2",
                            "display": "Blood pressure panel"
                        }
                    ],
                    "text": "Blood pressure panel"
                },
                "issued": "2011-11-01",
                "status": "final",
                "reliability": "ok",
                "extension": [
                    {
                        "url": "http://amida.com/fhir/Profile/extensions#observation-type",
                        "valueCoding": {
                            "code": "8716-3",
                            "display": "Vital signs",
                            "system": "http://loinc.org"
                        }
                    }
                ],
                "related": [
                    {
                        "type": "has-component",
                        "target": {
                            "reference": "Observation/e00ad160-ab1c-4d6e-ba80-59075086e0f5"
                        }
                    },
                    {
                        "type": "has-component",
                        "target": {
                            "reference": "Observation/9996eb1f-2749-4eb5-8dea-5bedb35c92fe"
                        }
                    }
                ]
            }
        },
        {
            "id": "Observation/b4267086-77d5-4ca3-be37-cc613e516e5a",
            "content": {
                "resourceType": "Observation",
                "name": {
                    "coding": [
                        {
                            "system": "http://loinc.org",
                            "code": "35094-2",
                            "display": "Blood pressure panel"
                        }
                    ],
                    "text": "Blood pressure panel"
                },
                "issued": "2013-01-30",
                "status": "final",
                "reliability": "ok",
                "extension": [
                    {
                        "url": "http://amida.com/fhir/Profile/extensions#observation-type",
                        "valueCoding": {
                            "code": "8716-3",
                            "display": "Vital signs",
                            "system": "http://loinc.org"
                        }
                    }
                ],
                "related": [
                    {
                        "type": "has-component",
                        "target": {
                            "reference": "Observation/42e8e180-4eec-45cb-820f-b528ea845f6d"
                        }
                    },
                    {
                        "type": "has-component",
                        "target": {
                            "reference": "Observation/35517948-d570-44c3-8629-a2e75c4daa52"
                        }
                    }
                ]
            }
        },
        {
            "id": "Condition/23a07e4a-98eb-43d9-b9f3-ca6638453c0d",
            "content": {
                "resourceType": "Condition",
                "status": "confirmed",
                "onsetDate": "2010-01-10",
                "dateAsserted": "2010-01-10",
                "code": {
                    "coding": [
                        {
                            "system": "http://snomed.info/sct",
                            "code": "363746003",
                            "display": "Hypertension"
                        }
                    ],
                    "text": "Hypertension"
                }
            }
        },
        {
            "id": "Condition/bdd15e04-b97e-42f3-a2d3-82124873a0b4",
            "content": {
                "resourceType": "Condition",
                "status": "confirmed",
                "onsetDate": "2013-01-30",
                "dateAsserted": "2013-01-30",
                "code": {
                    "coding": [
                        {
                            "system": "http://snomed.info/sct",
                            "code": "48440001",
                            "display": "Gout"
                        }
                    ],
                    "text": "Gout"
                }
            }
        },
        {
            "id": "Condition/8bcda154-92c4-44b2-94b3-1a21bc4c2cbd",
            "content": {
                "resourceType": "Condition",
                "status": "confirmed",
                "onsetDate": "2011-03-10",
                "dateAsserted": "2011-03-10",
                "code": {
                    "coding": [
                        {
                            "system": "http://snomed.info/sct",
                            "code": "195967001",
                            "display": "Type II DIabetes"
                        }
                    ],
                    "text": "Type II DIabetes"
                }
            }
        },
        {
            "id": "Observation/e3c68a9f-c203-438b-8f52-4f4bc58ec682",
            "content": {
                "resourceType": "Observation",
                "name": {
                    "coding": [
                        {
                            "system": "http://loinc.org",
                            "code": "30313-1",
                            "display": "HGB"
                        }
                    ],
                    "text": "HGB"
                },
                "valueQuantity": {
                    "value": 14.5,
                    "units": "g/dl",
                    "code": "g/dl",
                    "system": "http://unitsofmeasure.org"
                },
                "issued": "2013-01-30",
                "status": "final",
                "reliability": "ok",
                "extension": [
                    {
                        "url": "http://amida.com/fhir/Profile/extensions#observation-type",
                        "valueCoding": {
                            "code": "11502-2",
                            "display": "Laboratory report",
                            "system": "http://loinc.org"
                        }
                    }
                ]
            }
        },
        {
            "id": "Observation/cf38ff2c-7416-4f6e-baf9-40a50ebe46ea",
            "content": {
                "resourceType": "Observation",
                "name": {
                    "coding": [
                        {
                            "system": "http://loinc.org",
                            "code": "20570-8",
                            "display": "HCT"
                        }
                    ],
                    "text": "HCT"
                },
                "valueQuantity": {
                    "value": 50,
                    "units": "%",
                    "code": "%",
                    "system": "http://unitsofmeasure.org"
                },
                "issued": "2013-01-30",
                "status": "final",
                "reliability": "ok",
                "extension": [
                    {
                        "url": "http://amida.com/fhir/Profile/extensions#observation-type",
                        "valueCoding": {
                            "code": "11502-2",
                            "display": "Laboratory report",
                            "system": "http://loinc.org"
                        }
                    }
                ]
            }
        },
        {
            "id": "Observation/e063efae-c295-4c7c-8329-29629bf29d3d",
            "content": {
                "resourceType": "Observation",
                "name": {
                    "coding": [
                        {
                            "system": "http://loinc.org",
                            "code": "33765-9",
                            "display": "WBC"
                        }
                    ],
                    "text": "WBC"
                },
                "valueQuantity": {
                    "value": 5.2,
                    "units": "10^3/ul",
                    "code": "10^3/ul",
                    "system": "http://unitsofmeasure.org"
                },
                "issued": "2013-01-30",
                "status": "final",
                "reliability": "ok",
                "extension": [
                    {
                        "url": "http://amida.com/fhir/Profile/extensions#observation-type",
                        "valueCoding": {
                            "code": "11502-2",
                            "display": "Laboratory report",
                            "system": "http://loinc.org"
                        }
                    }
                ]
            }
        },
        {
            "id": "Observation/18433d90-9cc6-4500-af7f-d4b7f6b43b2f",
            "content": {
                "resourceType": "Observation",
                "name": {
                    "coding": [
                        {
                            "system": "http://loinc.org",
                            "code": "26515-7",
                            "display": "PLT"
                        }
                    ],
                    "text": "PLT"
                },
                "valueQuantity": {
                    "value": 388,
                    "units": "10^3/ul",
                    "code": "10^3/ul",
                    "system": "http://unitsofmeasure.org"
                },
                "issued": "2013-01-30",
                "status": "final",
                "reliability": "ok",
                "extension": [
                    {
                        "url": "http://amida.com/fhir/Profile/extensions#observation-type",
                        "valueCoding": {
                            "code": "11502-2",
                            "display": "Laboratory report",
                            "system": "http://loinc.org"
                        }
                    }
                ]
            }
        },
        {
            "id": "Observation/27ac467a-02f0-46ad-ae71-6e51e73d0ad0",
            "content": {
                "resourceType": "Observation",
                "name": {
                    "coding": [
                        {
                            "system": "urn:oid:2.16.840.1.113883.6.12",
                            "code": "85025",
                            "display": "CBC"
                        }
                    ],
                    "text": "CBC"
                },
                "status": "final",
                "reliability": "ok",
                "related": [
                    {
                        "type": "has-component",
                        "target": {
                            "reference": "Observation/e3c68a9f-c203-438b-8f52-4f4bc58ec682"
                        }
                    },
                    {
                        "type": "has-component",
                        "target": {
                            "reference": "Observation/cf38ff2c-7416-4f6e-baf9-40a50ebe46ea"
                        }
                    },
                    {
                        "type": "has-component",
                        "target": {
                            "reference": "Observation/e063efae-c295-4c7c-8329-29629bf29d3d"
                        }
                    },
                    {
                        "type": "has-component",
                        "target": {
                            "reference": "Observation/18433d90-9cc6-4500-af7f-d4b7f6b43b2f"
                        }
                    }
                ],
                "extension": [
                    {
                        "url": "http://amida.com/fhir/Profile/extensions#observation-type",
                        "valueCoding": {
                            "code": "11502-2",
                            "display": "Laboratory report",
                            "system": "http://loinc.org"
                        }
                    }
                ]
            }
        },
        {
            "id": "MedicationPrescription/90702f38-0d5a-4918-947e-b05cc0b79bb5",
            "content": {
                "resourceType": "MedicationPrescription",
                "status": "active",
                "dateWritten": "2010-01-10",
                "dosageInstruction": [
                    {
                        "doseQuantity": {
                            "value": 1
                        },
                        "timingSchedule": {
                            "event": [
                                {
                                    "start": "2010-01-10"
                                }
                            ],
                            "repeat": {
                                "frequency": 1,
                                "duration": 24,
                                "units": "h"
                            }
                        }
                    }
                ],
                "contained": [
                    {
                        "id": "med",
                        "resourceType": "Medication",
                        "name": "Lisinopril",
                        "code": {
                            "coding": [
                                {
                                    "system": "http://www.nlm.nih.gov/research/umls/rxnorm",
                                    "code": "258395",
                                    "display": "Lisinopril"
                                }
                            ],
                            "text": "Lisinopril"
                        }
                    }
                ],
                "medication": {
                    "reference": "#med",
                    "display": "Lisinopril"
                }
            }
        },
        {
            "id": "MedicationPrescription/1c1bb6f3-97a9-461c-aed6-15a5ae8ed1f9",
            "content": {
                "resourceType": "MedicationPrescription",
                "status": "active",
                "dateWritten": "2013-01-30",
                "dosageInstruction": [
                    {
                        "doseQuantity": {
                            "value": 1
                        },
                        "timingPeriod": {
                            "start": "2013-01-30"
                        }
                    }
                ],
                "contained": [
                    {
                        "id": "med",
                        "resourceType": "Medication",
                        "name": "Allopurinol 200 MG Oral Tablet",
                        "code": {
                            "coding": [
                                {
                                    "system": "http://www.nlm.nih.gov/research/umls/rxnorm",
                                    "code": "197319",
                                    "display": "Allopurinol 200 MG Oral Tablet"
                                }
                            ],
                            "text": "Allopurinol 200 MG Oral Tablet"
                        }
                    }
                ],
                "medication": {
                    "reference": "#med",
                    "display": "Allopurinol 200 MG Oral Tablet"
                }
            }
        },
        {
            "id": "MedicationPrescription/715ab77c-e25b-4773-9166-42808e6fee3f",
            "content": {
                "resourceType": "MedicationPrescription",
                "status": "completed",
                "dateWritten": "2013-01-30",
                "dosageInstruction": [
                    {
                        "doseQuantity": {
                            "value": 1
                        },
                        "timingSchedule": {
                            "event": [
                                {
                                    "start": "2013-01-30"
                                }
                            ],
                            "repeat": {
                                "frequency": 1,
                                "duration": 12,
                                "units": "h",
                                "end": "2013-02-06"
                            }
                        }
                    }
                ],
                "contained": [
                    {
                        "id": "med",
                        "resourceType": "Medication",
                        "name": "Clarithromycin 250 MG Oral Tablet",
                        "code": {
                            "coding": [
                                {
                                    "system": "http://www.nlm.nih.gov/research/umls/rxnorm",
                                    "code": "197517",
                                    "display": "Clarithromycin 250 MG Oral Tablet"
                                }
                            ],
                            "text": "Clarithromycin 250 MG Oral Tablet"
                        }
                    }
                ],
                "medication": {
                    "reference": "#med",
                    "display": "Clarithromycin 250 MG Oral Tablet"
                }
            }
        },
        {
            "id": "MedicationPrescription/0fe52064-0803-4768-a45b-5b50ee4520da",
            "content": {
                "resourceType": "MedicationPrescription",
                "status": "active",
                "dateWritten": "2011-04-13T04:00:00.000Z",
                "dosageInstruction": [
                    {
                        "route": {
                            "coding": [
                                {
                                    "system": "urn:oid:2.16.840.1.113883.3.26.1.1",
                                    "code": "C38288",
                                    "display": "ORAL"
                                }
                            ],
                            "text": "ORAL"
                        },
                        "doseQuantity": {
                            "value": 1
                        },
                        "timingSchedule": {
                            "event": [
                                {
                                    "start": "2011-04-13T04:00:00.000Z"
                                }
                            ],
                            "repeat": {
                                "frequency": 1,
                                "duration": 12,
                                "units": "h"
                            }
                        }
                    }
                ],
                "contained": [
                    {
                        "id": "med",
                        "resourceType": "Medication",
                        "name": "Metformin 850 MG Oral Tablet",
                        "code": {
                            "coding": [
                                {
                                    "system": "http://www.nlm.nih.gov/research/umls/rxnorm",
                                    "code": "860978",
                                    "display": "Metformin 850 MG Oral Tablet"
                                }
                            ],
                            "text": "Metformin 850 MG Oral Tablet"
                        }
                    }
                ],
                "medication": {
                    "reference": "#med",
                    "display": "Metformin 850 MG Oral Tablet"
                }
            }
        }
    ]
}