{
    "resourceType": "Bundle",
    "totalResults": 15,
    "entry": [
        {
            "id": "Patient/some-id-here-1987",
            "content": {
                "resourceType": "Patient",
                "identifier": [
                    {
                        "system": "http://www.midea-tecg.com",
                        "value": "JOE_DOE_IDENTIFIER"
                    }
                ],
                "name": [
                    {
                        "family": [
                            "DOE"
                        ],
                        "given": [
                            "JOE"
                        ]
                    }
                ]
            }
        },
        {
            "id": "AdverseReaction/910d847b-e4cf-4a5f-abcc-890fce3e4038",
            "content": {
                "resourceType": "AdverseReaction",
                "symptom": [
                    {
                        "code": {
                            "coding": [
                                {
                                    "system": "http://snomed.info/sct",
                                    "code": "247472004",
                                    "display": "Hives"
                                }
                            ],
                            "text": "Hives"
                        }
                    }
                ],
                "didNotOccurFlag": false,
                "subject": {
                    "reference": "Patient/some-id-here-1987",
                    "display": "DOE, JOE"
                }
            }
        },
        {
            "id": "AllergyIntolerance/975f7b03-e985-41dc-9716-bf4393e37f48",
            "content": {
                "resourceType": "AllergyIntolerance",
                "sensitivityType": "allergy",
                "recordedDate": "1998-01-10",
                "status": "confirmed",
                "contained": [
                    {
                        "id": "allergen",
                        "resourceType": "Substance",
                        "type": {
                            "coding": [
                                {
                                    "system": "http://www.nlm.nih.gov/research/umls/rxnorm",
                                    "code": "7982",
                                    "display": "Penicillin G benzathine"
                                }
                            ],
                            "text": "Penicillin G benzathine"
                        }
                    }
                ],
                "substance": {
                    "reference": "#allergen",
                    "display": "Penicillin G benzathine"
                },
                "reaction": [
                    {
                        "reference": "AdverseReaction/910d847b-e4cf-4a5f-abcc-890fce3e4038",
                        "display": "Hives"
                    }
                ],
                "subject": {
                    "reference": "Patient/some-id-here-1987",
                    "display": "DOE, JOE"
                }
            }
        },
        {
            "id": "Observation/e4c2fb41-02d4-4bf7-8efa-f13087af2c4e",
            "content": {
                "resourceType": "Observation",
                "name": {
                    "coding": [
                        {
                            "system": "http://loinc.org",
                            "code": "8302-2",
                            "display": "Height"
                        }
                    ],
                    "text": "Height"
                },
                "valueQuantity": {
                    "value": 70,
                    "units": "[in_us]",
                    "code": "[in_us]",
                    "system": "http://unitsofmeasure.org"
                },
                "issued": "2012-08-15",
                "status": "final",
                "reliability": "ok",
                "extension": [
                    {
                        "url": "http://amida.com/fhir/Profile/extensions#observation-type",
                        "valueCoding": {
                            "code": "8716-3",
                            "display": "Vital signs",
                            "system": "http://loinc.org"
                        }
                    }
                ],
                "subject": {
                    "reference": "Patient/some-id-here-1987",
                    "display": "DOE, JOE"
                }
            }
        },
        {
            "id": "Observation/31acc600-a093-406d-822d-976ad877834c",
            "content": {
                "resourceType": "Observation",
                "name": {
                    "coding": [
                        {
                            "system": "http://loinc.org",
                            "code": "3141-9",
                            "display": "Weight"
                        }
                    ],
                    "text": "Weight"
                },
                "valueQuantity": {
                    "value": 195,
                    "units": "[lb_av]",
                    "code": "[lb_av]",
                    "system": "http://unitsofmeasure.org"
                },
                "issued": "2012-08-15",
                "status": "final",
                "reliability": "ok",
                "extension": [
                    {
                        "url": "http://amida.com/fhir/Profile/extensions#observation-type",
                        "valueCoding": {
                            "code": "8716-3",
                            "display": "Vital signs",
                            "system": "http://loinc.org"
                        }
                    }
                ],
                "subject": {
                    "reference": "Patient/some-id-here-1987",
                    "display": "DOE, JOE"
                }
            }
        },
        {
            "id": "Observation/9eee119d-e36d-49b5-a75c-fe4d21309c2d",
            "content": {
                "resourceType": "Observation",
                "name": {
                    "coding": [
                        {
                            "system": "http://loinc.org",
                            "code": "8480-6",
                            "display": "BP Systolic"
                        }
                    ],
                    "text": "BP Systolic"
                },
                "valueQuantity": {
                    "value": 150,
                    "units": "mm[Hg]",
                    "code": "mm[Hg]",
                    "system": "http://unitsofmeasure.org"
                },
                "issued": "2012-08-15",
                "status": "final",
                "reliability": "ok",
                "extension": [
                    {
                        "url": "http://amida.com/fhir/Profile/extensions#observation-type",
                        "valueCoding": {
                            "code": "8716-3",
                            "display": "Vital signs",
                            "system": "http://loinc.org"
                        }
                    }
                ],
                "subject": {
                    "reference": "Patient/some-id-here-1987",
                    "display": "DOE, JOE"
                }
            }
        },
        {
            "id": "Observation/4e414b4b-1e16-411d-a417-fd0b8c36a088",
            "content": {
                "resourceType": "Observation",
                "name": {
                    "coding": [
                        {
                            "system": "http://loinc.org",
                            "code": "8462-4",
                            "display": "BP Diastolic"
                        }
                    ],
                    "text": "BP Diastolic"
                },
                "valueQuantity": {
                    "value": 100,
                    "units": "mm[Hg]",
                    "code": "mm[Hg]",
                    "system": "http://unitsofmeasure.org"
                },
                "issued": "2012-08-15",
                "status": "final",
                "reliability": "ok",
                "extension": [
                    {
                        "url": "http://amida.com/fhir/Profile/extensions#observation-type",
                        "valueCoding": {
                            "code": "8716-3",
                            "display": "Vital signs",
                            "system": "http://loinc.org"
                        }
                    }
                ],
                "subject": {
                    "reference": "Patient/some-id-here-1987",
                    "display": "DOE, JOE"
                }
            }
        },
        {
            "id": "Observation/20342001-9bb6-4680-bab2-74d68c2fe542",
            "content": {
                "resourceType": "Observation",
                "name": {
                    "coding": [
                        {
                            "system": "http://loinc.org",
                            "code": "39156-5",
                            "display": "Body Mass Index Calculated"
                        }
                    ],
                    "text": "Body Mass Index Calculated"
                },
                "valueQuantity": {
                    "value": 28
                },
                "issued": "2012-08-15",
                "status": "final",
                "reliability": "ok",
                "extension": [
                    {
                        "url": "http://amida.com/fhir/Profile/extensions#observation-type",
                        "valueCoding": {
                            "code": "8716-3",
                            "display": "Vital signs",
                            "system": "http://loinc.org"
                        }
                    }
                ],
                "subject": {
                    "reference": "Patient/some-id-here-1987",
                    "display": "DOE, JOE"
                }
            }
        },
        {
            "id": "Observation/ab299087-9029-4476-ab87-64c4e4186551",
            "content": {
                "resourceType": "Observation",
                "name": {
                    "coding": [
                        {
                            "system": "http://loinc.org",
                            "code": "55418-8",
                            "display": "Weight and Height tracking panel"
                        }
                    ],
                    "text": "Weight and Height tracking panel"
                },
                "issued": "2012-08-15",
                "status": "final",
                "reliability": "ok",
                "extension": [
                    {
                        "url": "http://amida.com/fhir/Profile/extensions#observation-type",
                        "valueCoding": {
                            "code": "8716-3",
                            "display": "Vital signs",
                            "system": "http://loinc.org"
                        }
                    }
                ],
                "related": [
                    {
                        "type": "has-component",
                        "target": {
                            "reference": "Observation/e4c2fb41-02d4-4bf7-8efa-f13087af2c4e"
                        }
                    },
                    {
                        "type": "has-component",
                        "target": {
                            "reference": "Observation/31acc600-a093-406d-822d-976ad877834c"
                        }
                    },
                    {
                        "type": "has-component",
                        "target": {
                            "reference": "Observation/20342001-9bb6-4680-bab2-74d68c2fe542"
                        }
                    }
                ],
                "subject": {
                    "reference": "Patient/some-id-here-1987",
                    "display": "DOE, JOE"
                }
            }
        },
        {
            "id": "Observation/7c32040c-a395-43ba-8af4-69e5ceb8115c",
            "content": {
                "resourceType": "Observation",
                "name": {
                    "coding": [
                        {
                            "system": "http://loinc.org",
                            "code": "35094-2",
                            "display": "Blood pressure panel"
                        }
                    ],
                    "text": "Blood pressure panel"
                },
                "issued": "2012-08-15",
                "status": "final",
                "reliability": "ok",
                "extension": [
                    {
                        "url": "http://amida.com/fhir/Profile/extensions#observation-type",
                        "valueCoding": {
                            "code": "8716-3",
                            "display": "Vital signs",
                            "system": "http://loinc.org"
                        }
                    }
                ],
                "related": [
                    {
                        "type": "has-component",
                        "target": {
                            "reference": "Observation/9eee119d-e36d-49b5-a75c-fe4d21309c2d"
                        }
                    },
                    {
                        "type": "has-component",
                        "target": {
                            "reference": "Observation/4e414b4b-1e16-411d-a417-fd0b8c36a088"
                        }
                    }
                ],
                "subject": {
                    "reference": "Patient/some-id-here-1987",
                    "display": "DOE, JOE"
                }
            }
        },
        {
            "id": "Condition/2ed23428-b16f-4916-9a69-c84e85ad0c30",
            "content": {
                "resourceType": "Condition",
                "status": "confirmed",
                "onsetDate": "2012-08-15",
                "dateAsserted": "2012-08-15",
                "code": {
                    "coding": [
                        {
                            "system": "http://snomed.info/sct",
                            "code": "64109004",
                            "display": "Costochondritis"
                        }
                    ],
                    "text": "Costochondritis"
                },
                "subject": {
                    "reference": "Patient/some-id-here-1987",
                    "display": "DOE, JOE"
                }
            }
        },
        {
            "id": "Condition/e3d8034e-dc53-4a05-a057-fa8cc8a95230",
            "content": {
                "resourceType": "Condition",
                "status": "confirmed",
                "onsetDate": "2011-09-25",
                "dateAsserted": "2011-09-25",
                "code": {
                    "coding": [
                        {
                            "system": "http://snomed.info/sct",
                            "code": "195967001",
                            "display": "Asthma"
                        }
                    ],
                    "text": "Asthma"
                },
                "subject": {
                    "reference": "Patient/some-id-here-1987",
                    "display": "DOE, JOE"
                }
            }
        },
        {
            "id": "Observation/f09859ea-b190-4a70-b9a2-cbd98bb1da7f",
            "content": {
                "resourceType": "Observation",
                "name": {
                    "coding": [
                        {
                            "system": "http://loinc.org",
                            "code": "2028-9",
                            "display": "CO2"
                        }
                    ],
                    "text": "CO2"
                },
                "valueQuantity": {
                    "value": 25,
                    "units": "mmol/L",
                    "code": "mmol/L",
                    "system": "http://unitsofmeasure.org"
                },
                "issued": "2012-08-15",
                "status": "final",
                "reliability": "ok",
                "extension": [
                    {
                        "url": "http://amida.com/fhir/Profile/extensions#observation-type",
                        "valueCoding": {
                            "code": "11502-2",
                            "display": "Laboratory report",
                            "system": "http://loinc.org"
                        }
                    }
                ],
                "subject": {
                    "reference": "Patient/some-id-here-1987",
                    "display": "DOE, JOE"
                }
            }
        },
        {
            "id": "Observation/62396b46-49eb-414f-8ff1-53f1068a3607",
            "content": {
                "resourceType": "Observation",
                "name": {
                    "coding": [
                        {
                            "system": "urn:oid:2.16.840.1.113883.6.12",
                            "code": "82374",
                            "display": "CO2"
                        }
                    ],
                    "text": "CO2"
                },
                "status": "final",
                "reliability": "ok",
                "related": [
                    {
                        "type": "has-component",
                        "target": {
                            "reference": "Observation/f09859ea-b190-4a70-b9a2-cbd98bb1da7f"
                        }
                    }
                ],
                "extension": [
                    {
                        "url": "http://amida.com/fhir/Profile/extensions#observation-type",
                        "valueCoding": {
                            "code": "11502-2",
                            "display": "Laboratory report",
                            "system": "http://loinc.org"
                        }
                    }
                ],
                "subject": {
                    "reference": "Patient/some-id-here-1987",
                    "display": "DOE, JOE"
                }
            }
        },
        {
            "id": "MedicationPrescription/6ebd9d10-ed16-4233-9cd9-f2b05ff09205",
            "content": {
                "resourceType": "MedicationPrescription",
                "status": "active",
                "dateWritten": "2012-02-20",
                "dosageInstruction": [
                    {
                        "route": {
                            "coding": [
                                {
                                    "system": "urn:oid:2.16.840.1.113883.3.26.1.1",
                                    "code": "C38216",
                                    "display": "RESPIRATORY (INHALATION)"
                                }
                            ],
                            "text": "RESPIRATORY (INHALATION)"
                        },
                        "doseQuantity": {
                            "value": 2,
                            "units": "Puffs",
                            "code": "Puffs",
                            "system": "http://unitsofmeasure.org"
                        },
                        "timingSchedule": {
                            "event": [
                                {
                                    "start": "2012-02-20"
                                }
                            ],
                            "repeat": {
                                "frequency": 1,
                                "duration": 6,
                                "units": "h"
                            }
                        }
                    }
                ],
                "contained": [
                    {
                        "id": "med",
                        "resourceType": "Medication",
                        "name": "Albuterol 0.09 MG/ACTUAT metered dose",
                        "code": {
                            "coding": [
                                {
                                    "system": "http://www.nlm.nih.gov/research/umls/rxnorm",
                                    "code": "573621",
                                    "display": "Albuterol 0.09 MG/ACTUAT metered dose"
                                }
                            ],
                            "text": "Albuterol 0.09 MG/ACTUAT metered dose"
                        }
                    }
                ],
                "medication": {
                    "reference": "#med",
                    "display": "Albuterol 0.09 MG/ACTUAT metered dose"
                },
                "patient": {
                    "reference": "Patient/some-id-here-1987",
                    "display": "DOE, JOE"
                }
            }
        }
    ]
}