{
    "resourceType": "Bundle",
    "totalResults": 12,
    "entry": [
        {
            "id": "Patient/some-id-here-1987",
            "content": {
                "resourceType": "Patient",
                "identifier": [
                    {
                        "system": "http://www.midea-tecg.com",
                        "value": "JOE_DOE_IDENTIFIER"
                    }
                ],
                "name": [
                    {
                        "family": [
                            "DOE"
                        ],
                        "given": [
                            "JOE"
                        ]
                    }
                ]
            }
        },
        {
            "id": "AllergyIntolerance/3295e07a-06f5-4881-858f-03fa90af4afa",
            "content": {
                "resourceType": "AllergyIntolerance",
                "sensitivityType": "allergy",
                "status": "confirmed",
                "contained": [
                    {
                        "id": "allergen",
                        "resourceType": "Substance",
                        "type": {
                            "coding": [
                                {
                                    "system": "http://www.nlm.nih.gov/research/umls/rxnorm",
                                    "code": "215674",
                                    "display": "Bicillin L-A"
                                }
                            ],
                            "text": "Bicillin L-A"
                        }
                    }
                ],
                "substance": {
                    "reference": "#allergen",
                    "display": "Bicillin L-A"
                },
                "subject": {
                    "reference": "Patient/some-id-here-1987",
                    "display": "DOE, JOE"
                }
            }
        },
        {
            "id": "Observation/9c662025-b646-4277-aeb6-5446e7f6949d",
            "content": {
                "resourceType": "Observation",
                "name": {
                    "coding": [
                        {
                            "system": "http://loinc.org",
                            "code": "8462-4",
                            "display": "BP Diastolic"
                        }
                    ],
                    "text": "BP Diastolic"
                },
                "valueQuantity": {
                    "value": 95,
                    "units": "mm[Hg]",
                    "code": "mm[Hg]",
                    "system": "http://unitsofmeasure.org"
                },
                "issued": "2013-01-16",
                "status": "final",
                "reliability": "ok",
                "extension": [
                    {
                        "url": "http://amida.com/fhir/Profile/extensions#observation-type",
                        "valueCoding": {
                            "code": "8716-3",
                            "display": "Vital signs",
                            "system": "http://loinc.org"
                        }
                    }
                ],
                "subject": {
                    "reference": "Patient/some-id-here-1987",
                    "display": "DOE, JOE"
                }
            }
        },
        {
            "id": "Observation/8750af45-5e9c-42f7-a1cb-a43d493f8bf8",
            "content": {
                "resourceType": "Observation",
                "name": {
                    "coding": [
                        {
                            "system": "http://loinc.org",
                            "code": "8480-6",
                            "display": "BP Systolic"
                        }
                    ],
                    "text": "BP Systolic"
                },
                "valueQuantity": {
                    "value": 150,
                    "units": "mm[Hg]",
                    "code": "mm[Hg]",
                    "system": "http://unitsofmeasure.org"
                },
                "issued": "2013-01-16",
                "status": "final",
                "reliability": "ok",
                "extension": [
                    {
                        "url": "http://amida.com/fhir/Profile/extensions#observation-type",
                        "valueCoding": {
                            "code": "8716-3",
                            "display": "Vital signs",
                            "system": "http://loinc.org"
                        }
                    }
                ],
                "subject": {
                    "reference": "Patient/some-id-here-1987",
                    "display": "DOE, JOE"
                }
            }
        },
        {
            "id": "Observation/8a37975b-aadd-4943-8332-92e9371e433f",
            "content": {
                "resourceType": "Observation",
                "name": {
                    "coding": [
                        {
                            "system": "http://loinc.org",
                            "code": "39156-5",
                            "display": "Body Mass Index"
                        }
                    ],
                    "text": "Body Mass Index"
                },
                "valueQuantity": {
                    "value": 27.9793,
                    "units": "kg/m²",
                    "code": "kg/m²",
                    "system": "http://unitsofmeasure.org"
                },
                "issued": "2013-01-16",
                "status": "final",
                "reliability": "ok",
                "extension": [
                    {
                        "url": "http://amida.com/fhir/Profile/extensions#observation-type",
                        "valueCoding": {
                            "code": "8716-3",
                            "display": "Vital signs",
                            "system": "http://loinc.org"
                        }
                    }
                ],
                "subject": {
                    "reference": "Patient/some-id-here-1987",
                    "display": "DOE, JOE"
                }
            }
        },
        {
            "id": "Observation/101da1d6-44b0-4a29-a3c0-18e1d57398d2",
            "content": {
                "resourceType": "Observation",
                "name": {
                    "coding": [
                        {
                            "system": "http://loinc.org",
                            "code": "8302-2",
                            "display": "Body Height (Measured)"
                        }
                    ],
                    "text": "Body Height (Measured)"
                },
                "valueQuantity": {
                    "value": 70,
                    "units": "[in_us]",
                    "code": "[in_us]",
                    "system": "http://unitsofmeasure.org"
                },
                "issued": "2013-01-16",
                "status": "final",
                "reliability": "ok",
                "extension": [
                    {
                        "url": "http://amida.com/fhir/Profile/extensions#observation-type",
                        "valueCoding": {
                            "code": "8716-3",
                            "display": "Vital signs",
                            "system": "http://loinc.org"
                        }
                    }
                ],
                "subject": {
                    "reference": "Patient/some-id-here-1987",
                    "display": "DOE, JOE"
                }
            }
        },
        {
            "id": "Observation/1572968d-4869-45fe-888a-470f86cb4021",
            "content": {
                "resourceType": "Observation",
                "name": {
                    "coding": [
                        {
                            "system": "http://loinc.org",
                            "code": "3141-9",
                            "display": "Body Weight (Measured)"
                        }
                    ],
                    "text": "Body Weight (Measured)"
                },
                "valueQuantity": {
                    "value": 195,
                    "units": "[lb_av]",
                    "code": "[lb_av]",
                    "system": "http://unitsofmeasure.org"
                },
                "issued": "2013-01-16",
                "status": "final",
                "reliability": "ok",
                "extension": [
                    {
                        "url": "http://amida.com/fhir/Profile/extensions#observation-type",
                        "valueCoding": {
                            "code": "8716-3",
                            "display": "Vital signs",
                            "system": "http://loinc.org"
                        }
                    }
                ],
                "subject": {
                    "reference": "Patient/some-id-here-1987",
                    "display": "DOE, JOE"
                }
            }
        },
        {
            "id": "Observation/2a1b73a9-a458-41fa-b18e-182a7f24b51c",
            "content": {
                "resourceType": "Observation",
                "name": {
                    "coding": [
                        {
                            "system": "http://loinc.org",
                            "code": "35094-2",
                            "display": "Blood pressure panel"
                        }
                    ],
                    "text": "Blood pressure panel"
                },
                "issued": "2013-01-16",
                "status": "final",
                "reliability": "ok",
                "extension": [
                    {
                        "url": "http://amida.com/fhir/Profile/extensions#observation-type",
                        "valueCoding": {
                            "code": "8716-3",
                            "display": "Vital signs",
                            "system": "http://loinc.org"
                        }
                    }
                ],
                "related": [
                    {
                        "type": "has-component",
                        "target": {
                            "reference": "Observation/9c662025-b646-4277-aeb6-5446e7f6949d"
                        }
                    },
                    {
                        "type": "has-component",
                        "target": {
                            "reference": "Observation/8750af45-5e9c-42f7-a1cb-a43d493f8bf8"
                        }
                    }
                ],
                "subject": {
                    "reference": "Patient/some-id-here-1987",
                    "display": "DOE, JOE"
                }
            }
        },
        {
            "id": "Observation/7adc5927-d320-4e66-8fbe-b00dba311f58",
            "content": {
                "resourceType": "Observation",
                "name": {
                    "coding": [
                        {
                            "system": "http://loinc.org",
                            "code": "55418-8",
                            "display": "Weight and Height tracking panel"
                        }
                    ],
                    "text": "Weight and Height tracking panel"
                },
                "issued": "2013-01-16",
                "status": "final",
                "reliability": "ok",
                "extension": [
                    {
                        "url": "http://amida.com/fhir/Profile/extensions#observation-type",
                        "valueCoding": {
                            "code": "8716-3",
                            "display": "Vital signs",
                            "system": "http://loinc.org"
                        }
                    }
                ],
                "related": [
                    {
                        "type": "has-component",
                        "target": {
                            "reference": "Observation/8a37975b-aadd-4943-8332-92e9371e433f"
                        }
                    },
                    {
                        "type": "has-component",
                        "target": {
                            "reference": "Observation/101da1d6-44b0-4a29-a3c0-18e1d57398d2"
                        }
                    },
                    {
                        "type": "has-component",
                        "target": {
                            "reference": "Observation/1572968d-4869-45fe-888a-470f86cb4021"
                        }
                    }
                ],
                "subject": {
                    "reference": "Patient/some-id-here-1987",
                    "display": "DOE, JOE"
                }
            }
        },
        {
            "id": "Observation/d9191d97-7543-48ba-8651-aa1a4310b0e5",
            "content": {
                "resourceType": "Observation",
                "name": {
                    "coding": [
                        {
                            "system": "http://loinc.org",
                            "code": "2028-9",
                            "display": "CO2 SerPl-sCnc"
                        }
                    ],
                    "text": "CO2 SerPl-sCnc"
                },
                "valueQuantity": {
                    "value": 25,
                    "units": "mmol/L",
                    "code": "mmol/L",
                    "system": "http://unitsofmeasure.org"
                },
                "issued": "2013-01-16",
                "status": "final",
                "reliability": "ok",
                "extension": [
                    {
                        "url": "http://amida.com/fhir/Profile/extensions#observation-type",
                        "valueCoding": {
                            "code": "11502-2",
                            "display": "Laboratory report",
                            "system": "http://loinc.org"
                        }
                    }
                ],
                "subject": {
                    "reference": "Patient/some-id-here-1987",
                    "display": "DOE, JOE"
                }
            }
        },
        {
            "id": "MedicationPrescription/e546b6bb-fdac-4b06-b7b3-b075e4612be2",
            "content": {
                "resourceType": "MedicationPrescription",
                "status": "active",
                "dateWritten": "2012-07-10",
                "dosageInstruction": [
                    {
                        "doseQuantity": {
                            "value": 2,
                            "units": "Inhaler",
                            "code": "Inhaler",
                            "system": "http://unitsofmeasure.org"
                        },
                        "timingPeriod": {
                            "start": "2012-07-10",
                            "end": "2012-08-09"
                        }
                    }
                ],
                "text": {
                    "status": "generated",
                    "div": "inhale 2 puffs by inhalation route every 6 hours for 30 days prn wheezing"
                },
                "contained": [
                    {
                        "id": "med",
                        "resourceType": "Medication",
                        "name": "200 ACTUAT Albuterol 0.09 MG/ACTUAT Metered Dose Inhaler",
                        "code": {
                            "coding": [
                                {
                                    "system": "http://www.nlm.nih.gov/research/umls/rxnorm",
                                    "code": "745679",
                                    "display": "200 ACTUAT Albuterol 0.09 MG/ACTUAT Metered Dose Inhaler"
                                }
                            ],
                            "text": "200 ACTUAT Albuterol 0.09 MG/ACTUAT Metered Dose Inhaler"
                        }
                    }
                ],
                "medication": {
                    "reference": "#med",
                    "display": "200 ACTUAT Albuterol 0.09 MG/ACTUAT Metered Dose Inhaler"
                },
                "patient": {
                    "reference": "Patient/some-id-here-1987",
                    "display": "DOE, JOE"
                }
            }
        },
        {
            "id": "MedicationAdministration/3a6d733c-ecfb-481f-9e99-c08ab6a75d7f",
            "content": {
                "resourceType": "MedicationAdministration",
                "status": "completed",
                "practitioner": {
                    "reference": "Practitioner/unknown",
                    "display": "Unknown"
                },
                "whenGiven": {
                    "start": "2012-07-10",
                    "end": "2012-08-09"
                },
                "dosage": [
                    {
                        "quantity": {
                            "value": 2,
                            "units": "Inhaler",
                            "code": "Inhaler",
                            "system": "http://unitsofmeasure.org"
                        },
                        "timingPeriod": {
                            "start": "2012-07-10",
                            "end": "2012-08-09"
                        }
                    }
                ],
                "prescription": {
                    "reference": "MedicationPrescription/e546b6bb-fdac-4b06-b7b3-b075e4612be2",
                    "display": "inhale 2 puffs by inhalation route every 6 hours for 30 days prn wheezing"
                },
                "contained": [
                    {
                        "id": "med",
                        "resourceType": "Medication",
                        "name": "200 ACTUAT Albuterol 0.09 MG/ACTUAT Metered Dose Inhaler",
                        "code": {
                            "coding": [
                                {
                                    "system": "http://www.nlm.nih.gov/research/umls/rxnorm",
                                    "code": "745679",
                                    "display": "200 ACTUAT Albuterol 0.09 MG/ACTUAT Metered Dose Inhaler"
                                }
                            ],
                            "text": "200 ACTUAT Albuterol 0.09 MG/ACTUAT Metered Dose Inhaler"
                        }
                    }
                ],
                "medication": {
                    "reference": "#med",
                    "display": "200 ACTUAT Albuterol 0.09 MG/ACTUAT Metered Dose Inhaler"
                },
                "patient": {
                    "reference": "Patient/some-id-here-1987",
                    "display": "DOE, JOE"
                }
            }
        }
    ]
}