{
    "resourceType": "Bundle",
    "totalResults": 18,
    "entry": [
        {
            "id": "Patient/some-id-here-1987",
            "content": {
                "resourceType": "Patient",
                "identifier": [
                    {
                        "system": "http://www.midea-tecg.com",
                        "value": "JOE_DOE_IDENTIFIER"
                    }
                ],
                "name": [
                    {
                        "family": [
                            "DOE"
                        ],
                        "given": [
                            "JOE"
                        ]
                    }
                ]
            }
        },
        {
            "id": "AllergyIntolerance/7e064f2a-2616-4def-9a5d-e168825ab0cd",
            "content": {
                "resourceType": "AllergyIntolerance",
                "sensitivityType": "allergy",
                "status": "confirmed",
                "substance": {
                    "reference": "Substance/14b5b340-76c6-466e-b148-d86618aeeec4",
                    "display": "Ecpirin"
                },
                "subject": {
                    "reference": "Patient/some-id-here-1987",
                    "display": "DOE, JOE"
                }
            }
        },
        {
            "id": "Observation/b8e71ed9-79b3-4c9f-97af-f27d07a434b1",
            "content": {
                "resourceType": "Observation",
                "name": {
                    "coding": [
                        {
                            "system": "http://loinc.org",
                            "code": "8462-4",
                            "display": "BP Diastolic"
                        }
                    ],
                    "text": "BP Diastolic"
                },
                "valueQuantity": {
                    "value": 88,
                    "units": "mm[Hg]",
                    "code": "mm[Hg]",
                    "system": "http://unitsofmeasure.org"
                },
                "issued": "2013-01-21",
                "status": "final",
                "reliability": "ok",
                "extension": [
                    {
                        "url": "http://amida.com/fhir/Profile/extensions#observation-type",
                        "valueCoding": {
                            "code": "8716-3",
                            "display": "Vital signs",
                            "system": "http://loinc.org"
                        }
                    }
                ],
                "subject": {
                    "reference": "Patient/some-id-here-1987",
                    "display": "DOE, JOE"
                }
            }
        },
        {
            "id": "Observation/9b0eb97a-abae-4388-ba80-1fa19234e14b",
            "content": {
                "resourceType": "Observation",
                "name": {
                    "coding": [
                        {
                            "system": "http://loinc.org",
                            "code": "8480-6",
                            "display": "BP Systolic"
                        }
                    ],
                    "text": "BP Systolic"
                },
                "valueQuantity": {
                    "value": 120,
                    "units": "mm[Hg]",
                    "code": "mm[Hg]",
                    "system": "http://unitsofmeasure.org"
                },
                "issued": "2013-01-21",
                "status": "final",
                "reliability": "ok",
                "extension": [
                    {
                        "url": "http://amida.com/fhir/Profile/extensions#observation-type",
                        "valueCoding": {
                            "code": "8716-3",
                            "display": "Vital signs",
                            "system": "http://loinc.org"
                        }
                    }
                ],
                "subject": {
                    "reference": "Patient/some-id-here-1987",
                    "display": "DOE, JOE"
                }
            }
        },
        {
            "id": "Observation/0a3f2686-7e50-4bb9-8cf3-9959ee350db5",
            "content": {
                "resourceType": "Observation",
                "name": {
                    "coding": [
                        {
                            "system": "http://loinc.org",
                            "code": "41909-3",
                            "display": "Body Mass Index"
                        }
                    ],
                    "text": "Body Mass Index"
                },
                "valueQuantity": {
                    "value": 114.691,
                    "units": "kg/m²",
                    "code": "kg/m²",
                    "system": "http://unitsofmeasure.org"
                },
                "issued": "2013-01-21",
                "status": "final",
                "reliability": "ok",
                "extension": [
                    {
                        "url": "http://amida.com/fhir/Profile/extensions#observation-type",
                        "valueCoding": {
                            "code": "8716-3",
                            "display": "Vital signs",
                            "system": "http://loinc.org"
                        }
                    }
                ],
                "subject": {
                    "reference": "Patient/some-id-here-1987",
                    "display": "DOE, JOE"
                }
            }
        },
        {
            "id": "Observation/6f57c6ad-d226-4f49-a9c5-70ba37b816ba",
            "content": {
                "resourceType": "Observation",
                "name": {
                    "coding": [
                        {
                            "system": "http://loinc.org",
                            "code": "8302-2",
                            "display": "Body Height (Measured)"
                        }
                    ],
                    "text": "Body Height (Measured)"
                },
                "valueQuantity": {
                    "value": 30.315,
                    "units": "[in_us]",
                    "code": "[in_us]",
                    "system": "http://unitsofmeasure.org"
                },
                "issued": "2013-01-21",
                "status": "final",
                "reliability": "ok",
                "extension": [
                    {
                        "url": "http://amida.com/fhir/Profile/extensions#observation-type",
                        "valueCoding": {
                            "code": "8716-3",
                            "display": "Vital signs",
                            "system": "http://loinc.org"
                        }
                    }
                ],
                "subject": {
                    "reference": "Patient/some-id-here-1987",
                    "display": "DOE, JOE"
                }
            }
        },
        {
            "id": "Observation/70f086b5-3c55-4079-bd7d-3c014e2682d2",
            "content": {
                "resourceType": "Observation",
                "name": {
                    "coding": [
                        {
                            "system": "http://loinc.org",
                            "code": "3141-9",
                            "display": "Body Weight (Measured)"
                        }
                    ],
                    "text": "Body Weight (Measured)"
                },
                "valueQuantity": {
                    "value": 149.914,
                    "units": "[lb_av]",
                    "code": "[lb_av]",
                    "system": "http://unitsofmeasure.org"
                },
                "issued": "2013-01-21",
                "status": "final",
                "reliability": "ok",
                "extension": [
                    {
                        "url": "http://amida.com/fhir/Profile/extensions#observation-type",
                        "valueCoding": {
                            "code": "8716-3",
                            "display": "Vital signs",
                            "system": "http://loinc.org"
                        }
                    }
                ],
                "subject": {
                    "reference": "Patient/some-id-here-1987",
                    "display": "DOE, JOE"
                }
            }
        },
        {
            "id": "Observation/b3e5606d-7f57-4cd3-aa94-09c0fb666040",
            "content": {
                "resourceType": "Observation",
                "name": {
                    "coding": [
                        {
                            "system": "http://loinc.org",
                            "code": "35094-2",
                            "display": "Blood pressure panel"
                        }
                    ],
                    "text": "Blood pressure panel"
                },
                "issued": "2013-01-21",
                "status": "final",
                "reliability": "ok",
                "extension": [
                    {
                        "url": "http://amida.com/fhir/Profile/extensions#observation-type",
                        "valueCoding": {
                            "code": "8716-3",
                            "display": "Vital signs",
                            "system": "http://loinc.org"
                        }
                    }
                ],
                "related": [
                    {
                        "type": "has-component",
                        "target": {
                            "reference": "Observation/b8e71ed9-79b3-4c9f-97af-f27d07a434b1"
                        }
                    },
                    {
                        "type": "has-component",
                        "target": {
                            "reference": "Observation/9b0eb97a-abae-4388-ba80-1fa19234e14b"
                        }
                    }
                ],
                "subject": {
                    "reference": "Patient/some-id-here-1987",
                    "display": "DOE, JOE"
                }
            }
        },
        {
            "id": "Observation/2844cea1-255e-49ad-9f13-236f8739089e",
            "content": {
                "resourceType": "Observation",
                "name": {
                    "coding": [
                        {
                            "system": "http://loinc.org",
                            "code": "55418-8",
                            "display": "Weight and Height tracking panel"
                        }
                    ],
                    "text": "Weight and Height tracking panel"
                },
                "issued": "2013-01-21",
                "status": "final",
                "reliability": "ok",
                "extension": [
                    {
                        "url": "http://amida.com/fhir/Profile/extensions#observation-type",
                        "valueCoding": {
                            "code": "8716-3",
                            "display": "Vital signs",
                            "system": "http://loinc.org"
                        }
                    }
                ],
                "related": [
                    {
                        "type": "has-component",
                        "target": {
                            "reference": "Observation/6f57c6ad-d226-4f49-a9c5-70ba37b816ba"
                        }
                    },
                    {
                        "type": "has-component",
                        "target": {
                            "reference": "Observation/70f086b5-3c55-4079-bd7d-3c014e2682d2"
                        }
                    }
                ],
                "subject": {
                    "reference": "Patient/some-id-here-1987",
                    "display": "DOE, JOE"
                }
            }
        },
        {
            "id": "Observation/d40de684-9ebf-4f17-9b7f-eee9756a5139",
            "content": {
                "resourceType": "Observation",
                "name": {
                    "coding": [
                        {
                            "system": "http://loinc.org",
                            "code": "718-7",
                            "display": "Hgb Bld-mCnc"
                        }
                    ],
                    "text": "Hgb Bld-mCnc"
                },
                "valueQuantity": {
                    "value": 13.4,
                    "units": "g/dL",
                    "code": "g/dL",
                    "system": "http://unitsofmeasure.org"
                },
                "issued": "2013-01-21",
                "status": "final",
                "reliability": "ok",
                "extension": [
                    {
                        "url": "http://amida.com/fhir/Profile/extensions#observation-type",
                        "valueCoding": {
                            "code": "11502-2",
                            "display": "Laboratory report",
                            "system": "http://loinc.org"
                        }
                    }
                ],
                "subject": {
                    "reference": "Patient/some-id-here-1987",
                    "display": "DOE, JOE"
                }
            }
        },
        {
            "id": "Observation/f9402e41-c367-4793-bc07-6adea4e602ce",
            "content": {
                "resourceType": "Observation",
                "name": {
                    "coding": [
                        {
                            "system": "http://loinc.org",
                            "code": "4544-3",
                            "display": "Hct Fr Bld Auto"
                        }
                    ],
                    "text": "Hct Fr Bld Auto"
                },
                "valueQuantity": {
                    "value": 46,
                    "units": "%",
                    "code": "%",
                    "system": "http://unitsofmeasure.org"
                },
                "issued": "2013-01-21",
                "status": "final",
                "reliability": "ok",
                "extension": [
                    {
                        "url": "http://amida.com/fhir/Profile/extensions#observation-type",
                        "valueCoding": {
                            "code": "11502-2",
                            "display": "Laboratory report",
                            "system": "http://loinc.org"
                        }
                    }
                ],
                "subject": {
                    "reference": "Patient/some-id-here-1987",
                    "display": "DOE, JOE"
                }
            }
        },
        {
            "id": "Observation/045e780a-972c-487a-b8ae-d4c8df1c4a70",
            "content": {
                "resourceType": "Observation",
                "name": {
                    "coding": [
                        {
                            "system": "http://loinc.org",
                            "code": "6690-2",
                            "display": "WBC # Bld Auto"
                        }
                    ],
                    "text": "WBC # Bld Auto"
                },
                "valueQuantity": {
                    "value": 12.5,
                    "units": "x10E3/uL",
                    "code": "x10E3/uL",
                    "system": "http://unitsofmeasure.org"
                },
                "issued": "2013-01-21",
                "status": "final",
                "reliability": "ok",
                "extension": [
                    {
                        "url": "http://amida.com/fhir/Profile/extensions#observation-type",
                        "valueCoding": {
                            "code": "11502-2",
                            "display": "Laboratory report",
                            "system": "http://loinc.org"
                        }
                    }
                ],
                "subject": {
                    "reference": "Patient/some-id-here-1987",
                    "display": "DOE, JOE"
                }
            }
        },
        {
            "id": "Observation/24d91d53-2ed4-49d0-81fd-0a6e25df514e",
            "content": {
                "resourceType": "Observation",
                "name": {
                    "coding": [
                        {
                            "system": "http://loinc.org",
                            "code": "777-3",
                            "display": "Platelet # Bld Auto"
                        }
                    ],
                    "text": "Platelet # Bld Auto"
                },
                "valueQuantity": {
                    "value": 296,
                    "units": "x10E3/uL",
                    "code": "x10E3/uL",
                    "system": "http://unitsofmeasure.org"
                },
                "issued": "2013-01-21",
                "status": "final",
                "reliability": "ok",
                "extension": [
                    {
                        "url": "http://amida.com/fhir/Profile/extensions#observation-type",
                        "valueCoding": {
                            "code": "11502-2",
                            "display": "Laboratory report",
                            "system": "http://loinc.org"
                        }
                    }
                ],
                "subject": {
                    "reference": "Patient/some-id-here-1987",
                    "display": "DOE, JOE"
                }
            }
        },
        {
            "id": "MedicationPrescription/fd2a39fc-7d3a-4293-9f09-5df86a8b7955",
            "content": {
                "resourceType": "MedicationPrescription",
                "status": "active",
                "dateWritten": "2013-01-21",
                "dosageInstruction": [
                    {
                        "doseQuantity": {
                            "value": 2,
                            "units": "Inhaler",
                            "code": "Inhaler",
                            "system": "http://unitsofmeasure.org"
                        },
                        "timingPeriod": {
                            "start": "2013-01-21",
                            "end": "2013-02-20"
                        }
                    }
                ],
                "text": {
                    "status": "generated",
                    "div": "inhale 2 puffs by inhalation route at least 15 minutes before exertion for 30 days"
                },
                "medication": {
                    "reference": "Medication/cff4df14-1c3b-48b1-869c-413128be6341",
                    "display": "200 ACTUAT Albuterol 0.09 MG/ACTUAT Metered Dose Inhaler"
                },
                "patient": {
                    "reference": "Patient/some-id-here-1987",
                    "display": "DOE, JOE"
                }
            }
        },
        {
            "id": "MedicationPrescription/03419b3f-48cb-4de9-9aa1-406e3b42750a",
            "content": {
                "resourceType": "MedicationPrescription",
                "status": "active",
                "dateWritten": "2013-04-18",
                "dosageInstruction": [
                    {
                        "doseQuantity": {
                            "value": 1,
                            "units": "cartridge",
                            "code": "cartridge",
                            "system": "http://unitsofmeasure.org"
                        },
                        "timingPeriod": {
                            "start": "2013-04-18",
                            "end": "2013-04-24"
                        }
                    }
                ],
                "text": {
                    "status": "generated",
                    "div": "inject 1 milliliter (30 mg) by intramuscular route every 6 hours as needed for up to 5 days total use for 6 days"
                },
                "medication": {
                    "reference": "Medication/75f2b7d3-2749-49ce-90f1-003d3919b5d9",
                    "display": "1 ML Ketorolac Tromethamine 30 MG/ML Prefilled Syringe"
                },
                "patient": {
                    "reference": "Patient/some-id-here-1987",
                    "display": "DOE, JOE"
                }
            }
        },
        {
            "id": "Substance/14b5b340-76c6-466e-b148-d86618aeeec4",
            "content": {
                "resourceType": "Substance",
                "type": {
                    "coding": [
                        {
                            "system": "http://www.nlm.nih.gov/research/umls/rxnorm",
                            "code": "1001473",
                            "display": "Ecpirin"
                        }
                    ],
                    "text": "Ecpirin"
                }
            }
        },
        {
            "id": "Medication/cff4df14-1c3b-48b1-869c-413128be6341",
            "content": {
                "resourceType": "Medication",
                "name": "200 ACTUAT Albuterol 0.09 MG/ACTUAT Metered Dose Inhaler",
                "code": {
                    "coding": [
                        {
                            "system": "http://www.nlm.nih.gov/research/umls/rxnorm",
                            "code": "745679",
                            "display": "200 ACTUAT Albuterol 0.09 MG/ACTUAT Metered Dose Inhaler"
                        }
                    ],
                    "text": "200 ACTUAT Albuterol 0.09 MG/ACTUAT Metered Dose Inhaler"
                }
            }
        },
        {
            "id": "Medication/75f2b7d3-2749-49ce-90f1-003d3919b5d9",
            "content": {
                "resourceType": "Medication",
                "name": "1 ML Ketorolac Tromethamine 30 MG/ML Prefilled Syringe",
                "code": {
                    "coding": [
                        {
                            "system": "http://www.nlm.nih.gov/research/umls/rxnorm",
                            "code": "860114",
                            "display": "1 ML Ketorolac Tromethamine 30 MG/ML Prefilled Syringe"
                        }
                    ],
                    "text": "1 ML Ketorolac Tromethamine 30 MG/ML Prefilled Syringe"
                }
            }
        }
    ]
}