{
    "resourceType": "Bundle",
    "total": 17,
    "entry": [
        {
            "resource": {
                "id": "Patient/0",
                "resourceType": "Patient",
                "identifier": [
                    {
                        "system": "http://www.midea-tecg.com",
                        "value": "JOE_DOE_IDENTIFIER"
                    }
                ],
                "name": [
                    {
                        "family": [
                            "DOE"
                        ],
                        "given": [
                            "JOE"
                        ]
                    }
                ]
            }
        },
        {
            "resource": {
                "id": "AdverseReaction/1",
                "resourceType": "AdverseReaction",
                "symptom": [
                    {
                        "code": {
                            "text": "hives"
                        }
                    }
                ],
                "didNotOccurFlag": false,
                "subject": {
                    "reference": "Patient/0",
                    "display": "DOE, JOE"
                }
            }
        },
        {
            "resource": {
                "id": "AllergyIntolerance/2",
                "resourceType": "AllergyIntolerance",
                "sensitivityType": "allergy",
                "status": "confirmed",
                "substance": {
                    "reference": "Substance/15",
                    "display": "Ecpirin"
                },
                "reaction": [
                    {
                        "reference": "AdverseReaction/1",
                        "display": "hives"
                    }
                ],
                "subject": {
                    "reference": "Patient/0",
                    "display": "DOE, JOE"
                }
            }
        },
        {
            "resource": {
                "id": "Observation/3",
                "resourceType": "Observation",
                "name": {
                    "coding": [
                        {
                            "system": "http://loinc.org",
                            "code": "8462-4",
                            "display": "BP Diastolic"
                        }
                    ],
                    "text": "BP Diastolic"
                },
                "valueQuantity": {
                    "value": 88,
                    "units": "mm[Hg]",
                    "code": "mm[Hg]",
                    "system": "http://unitsofmeasure.org"
                },
                "issued": "2013-01-21",
                "status": "final",
                "reliability": "ok",
                "extension": [
                    {
                        "url": "http://amida.com/fhir/Profile/extensions#observation-type",
                        "valueCoding": {
                            "code": "8716-3",
                            "display": "Vital signs",
                            "system": "http://loinc.org"
                        }
                    }
                ],
                "subject": {
                    "reference": "Patient/0",
                    "display": "DOE, JOE"
                }
            }
        },
        {
            "resource": {
                "id": "Observation/4",
                "resourceType": "Observation",
                "name": {
                    "coding": [
                        {
                            "system": "http://loinc.org",
                            "code": "8480-6",
                            "display": "BP Systolic"
                        }
                    ],
                    "text": "BP Systolic"
                },
                "valueQuantity": {
                    "value": 120,
                    "units": "mm[Hg]",
                    "code": "mm[Hg]",
                    "system": "http://unitsofmeasure.org"
                },
                "issued": "2013-01-21",
                "status": "final",
                "reliability": "ok",
                "extension": [
                    {
                        "url": "http://amida.com/fhir/Profile/extensions#observation-type",
                        "valueCoding": {
                            "code": "8716-3",
                            "display": "Vital signs",
                            "system": "http://loinc.org"
                        }
                    }
                ],
                "subject": {
                    "reference": "Patient/0",
                    "display": "DOE, JOE"
                }
            }
        },
        {
            "resource": {
                "id": "Observation/5",
                "resourceType": "Observation",
                "name": {
                    "coding": [
                        {
                            "system": "http://loinc.org",
                            "code": "41909-3",
                            "display": "Body Mass Index"
                        }
                    ],
                    "text": "Body Mass Index"
                },
                "valueQuantity": {
                    "value": 114.691,
                    "units": "kg/m²",
                    "code": "kg/m²",
                    "system": "http://unitsofmeasure.org"
                },
                "issued": "2013-01-21",
                "status": "final",
                "reliability": "ok",
                "extension": [
                    {
                        "url": "http://amida.com/fhir/Profile/extensions#observation-type",
                        "valueCoding": {
                            "code": "8716-3",
                            "display": "Vital signs",
                            "system": "http://loinc.org"
                        }
                    }
                ],
                "subject": {
                    "reference": "Patient/0",
                    "display": "DOE, JOE"
                }
            }
        },
        {
            "resource": {
                "id": "Observation/6",
                "resourceType": "Observation",
                "name": {
                    "coding": [
                        {
                            "system": "http://loinc.org",
                            "code": "8302-2",
                            "display": "Body Height (Measured)"
                        }
                    ],
                    "text": "Body Height (Measured)"
                },
                "valueQuantity": {
                    "value": 30.315,
                    "units": "[in_us]",
                    "code": "[in_us]",
                    "system": "http://unitsofmeasure.org"
                },
                "issued": "2013-01-21",
                "status": "final",
                "reliability": "ok",
                "extension": [
                    {
                        "url": "http://amida.com/fhir/Profile/extensions#observation-type",
                        "valueCoding": {
                            "code": "8716-3",
                            "display": "Vital signs",
                            "system": "http://loinc.org"
                        }
                    }
                ],
                "subject": {
                    "reference": "Patient/0",
                    "display": "DOE, JOE"
                }
            }
        },
        {
            "resource": {
                "id": "Observation/7",
                "resourceType": "Observation",
                "name": {
                    "coding": [
                        {
                            "system": "http://loinc.org",
                            "code": "3141-9",
                            "display": "Body Weight (Measured)"
                        }
                    ],
                    "text": "Body Weight (Measured)"
                },
                "valueQuantity": {
                    "value": 149.914,
                    "units": "[lb_av]",
                    "code": "[lb_av]",
                    "system": "http://unitsofmeasure.org"
                },
                "issued": "2013-01-21",
                "status": "final",
                "reliability": "ok",
                "extension": [
                    {
                        "url": "http://amida.com/fhir/Profile/extensions#observation-type",
                        "valueCoding": {
                            "code": "8716-3",
                            "display": "Vital signs",
                            "system": "http://loinc.org"
                        }
                    }
                ],
                "subject": {
                    "reference": "Patient/0",
                    "display": "DOE, JOE"
                }
            }
        },
        {
            "resource": {
                "id": "Observation/8",
                "resourceType": "Observation",
                "name": {
                    "coding": [
                        {
                            "system": "http://loinc.org",
                            "code": "35094-2",
                            "display": "Blood pressure panel"
                        }
                    ],
                    "text": "Blood pressure panel"
                },
                "issued": "2013-01-21",
                "status": "final",
                "reliability": "ok",
                "extension": [
                    {
                        "url": "http://amida.com/fhir/Profile/extensions#observation-type",
                        "valueCoding": {
                            "code": "8716-3",
                            "display": "Vital signs",
                            "system": "http://loinc.org"
                        }
                    }
                ],
                "related": [
                    {
                        "type": "has-component",
                        "target": {
                            "reference": "Observation/3"
                        }
                    },
                    {
                        "type": "has-component",
                        "target": {
                            "reference": "Observation/4"
                        }
                    }
                ],
                "subject": {
                    "reference": "Patient/0",
                    "display": "DOE, JOE"
                }
            }
        },
        {
            "resource": {
                "id": "Observation/9",
                "resourceType": "Observation",
                "name": {
                    "coding": [
                        {
                            "system": "http://loinc.org",
                            "code": "55418-8",
                            "display": "Weight and Height tracking panel"
                        }
                    ],
                    "text": "Weight and Height tracking panel"
                },
                "issued": "2013-01-21",
                "status": "final",
                "reliability": "ok",
                "extension": [
                    {
                        "url": "http://amida.com/fhir/Profile/extensions#observation-type",
                        "valueCoding": {
                            "code": "8716-3",
                            "display": "Vital signs",
                            "system": "http://loinc.org"
                        }
                    }
                ],
                "related": [
                    {
                        "type": "has-component",
                        "target": {
                            "reference": "Observation/6"
                        }
                    },
                    {
                        "type": "has-component",
                        "target": {
                            "reference": "Observation/7"
                        }
                    }
                ],
                "subject": {
                    "reference": "Patient/0",
                    "display": "DOE, JOE"
                }
            }
        },
        {
            "resource": {
                "id": "Observation/10",
                "resourceType": "Observation",
                "name": {
                    "coding": [
                        {
                            "system": "http://loinc.org",
                            "code": "718-7",
                            "display": "Hgb Bld-mCnc"
                        }
                    ],
                    "text": "Hgb Bld-mCnc"
                },
                "valueQuantity": {
                    "value": 13.4,
                    "units": "g/dL",
                    "code": "g/dL",
                    "system": "http://unitsofmeasure.org"
                },
                "issued": "2013-01-21",
                "status": "final",
                "reliability": "ok",
                "extension": [
                    {
                        "url": "http://amida.com/fhir/Profile/extensions#observation-type",
                        "valueCoding": {
                            "code": "11502-2",
                            "display": "Laboratory report",
                            "system": "http://loinc.org"
                        }
                    }
                ],
                "subject": {
                    "reference": "Patient/0",
                    "display": "DOE, JOE"
                }
            }
        },
        {
            "resource": {
                "id": "Observation/11",
                "resourceType": "Observation",
                "name": {
                    "coding": [
                        {
                            "system": "http://loinc.org",
                            "code": "4544-3",
                            "display": "Hct Fr Bld Auto"
                        }
                    ],
                    "text": "Hct Fr Bld Auto"
                },
                "valueQuantity": {
                    "value": 46,
                    "units": "%",
                    "code": "%",
                    "system": "http://unitsofmeasure.org"
                },
                "issued": "2013-01-21",
                "status": "final",
                "reliability": "ok",
                "extension": [
                    {
                        "url": "http://amida.com/fhir/Profile/extensions#observation-type",
                        "valueCoding": {
                            "code": "11502-2",
                            "display": "Laboratory report",
                            "system": "http://loinc.org"
                        }
                    }
                ],
                "subject": {
                    "reference": "Patient/0",
                    "display": "DOE, JOE"
                }
            }
        },
        {
            "resource": {
                "id": "Observation/12",
                "resourceType": "Observation",
                "name": {
                    "coding": [
                        {
                            "system": "http://loinc.org",
                            "code": "6690-2",
                            "display": "WBC # Bld Auto"
                        }
                    ],
                    "text": "WBC # Bld Auto"
                },
                "valueQuantity": {
                    "value": 12.5,
                    "units": "x10E3/uL",
                    "code": "x10E3/uL",
                    "system": "http://unitsofmeasure.org"
                },
                "issued": "2013-01-21",
                "status": "final",
                "reliability": "ok",
                "extension": [
                    {
                        "url": "http://amida.com/fhir/Profile/extensions#observation-type",
                        "valueCoding": {
                            "code": "11502-2",
                            "display": "Laboratory report",
                            "system": "http://loinc.org"
                        }
                    }
                ],
                "subject": {
                    "reference": "Patient/0",
                    "display": "DOE, JOE"
                }
            }
        },
        {
            "resource": {
                "id": "Observation/13",
                "resourceType": "Observation",
                "name": {
                    "coding": [
                        {
                            "system": "http://loinc.org",
                            "code": "777-3",
                            "display": "Platelet # Bld Auto"
                        }
                    ],
                    "text": "Platelet # Bld Auto"
                },
                "valueQuantity": {
                    "value": 296,
                    "units": "x10E3/uL",
                    "code": "x10E3/uL",
                    "system": "http://unitsofmeasure.org"
                },
                "issued": "2013-01-21",
                "status": "final",
                "reliability": "ok",
                "extension": [
                    {
                        "url": "http://amida.com/fhir/Profile/extensions#observation-type",
                        "valueCoding": {
                            "code": "11502-2",
                            "display": "Laboratory report",
                            "system": "http://loinc.org"
                        }
                    }
                ],
                "subject": {
                    "reference": "Patient/0",
                    "display": "DOE, JOE"
                }
            }
        },
        {
            "resource": {
                "id": "MedicationPrescription/14",
                "resourceType": "MedicationPrescription",
                "status": "active",
                "dateWritten": "2013-01-21",
                "dosageInstruction": [
                    {
                        "doseQuantity": {
                            "value": 2,
                            "units": "Inhaler",
                            "code": "Inhaler",
                            "system": "http://unitsofmeasure.org"
                        },
                        "timingPeriod": {
                            "start": "2013-01-21",
                            "end": "2013-02-20"
                        }
                    }
                ],
                "text": {
                    "status": "generated",
                    "div": "inhale 2 puffs by inhalation route at least 15 minutes before exertion for 30 days"
                },
                "medication": {
                    "reference": "Medication/16",
                    "display": "Proventil HFA Inhalation HFA Aerosol Inhaler 90 mcg/actuation"
                },
                "patient": {
                    "reference": "Patient/0",
                    "display": "DOE, JOE"
                }
            }
        },
        {
            "resource": {
                "id": "Substance/15",
                "resourceType": "Substance",
                "type": {
                    "coding": [
                        {
                            "system": "http://www.nlm.nih.gov/research/umls/rxnorm",
                            "code": "1001473",
                            "display": "Ecpirin"
                        }
                    ],
                    "text": "Ecpirin"
                }
            }
        },
        {
            "resource": {
                "id": "Medication/16",
                "resourceType": "Medication",
                "name": "Proventil HFA Inhalation HFA Aerosol Inhaler 90 mcg/actuation",
                "code": {
                    "coding": [
                        {
                            "system": "http://www.nlm.nih.gov/research/umls/rxnorm",
                            "code": "745679",
                            "display": "200 ACTUAT Albuterol 0.09 MG/ACTUAT Metered Dose Inhaler"
                        }
                    ],
                    "text": "200 ACTUAT Albuterol 0.09 MG/ACTUAT Metered Dose Inhaler"
                }
            }
        }
    ]
}