{
    "resourceType": "Bundle",
    "totalResults": 35,
    "entry": [
        {
            "id": "Patient/some-id-here-1987",
            "content": {
                "resourceType": "Patient",
                "identifier": [
                    {
                        "system": "http://www.midea-tecg.com",
                        "value": "JOE_DOE_IDENTIFIER"
                    }
                ],
                "name": [
                    {
                        "family": [
                            "DOE"
                        ],
                        "given": [
                            "JOE"
                        ]
                    }
                ]
            }
        },
        {
            "id": "AllergyIntolerance/14ac2c75-521e-49bf-8e94-fef899b99469",
            "content": {
                "resourceType": "AllergyIntolerance",
                "sensitivityType": "allergy",
                "status": "confirmed",
                "substance": {
                    "reference": "Substance/4e122e9d-2a28-4cd9-8de3-fbcbb1c3f93f",
                    "display": "Bicillin L-A"
                },
                "subject": {
                    "reference": "Patient/some-id-here-1987",
                    "display": "DOE, JOE"
                }
            }
        },
        {
            "id": "Observation/e2ea4865-3226-423b-a72a-46eb7fa656bc",
            "content": {
                "resourceType": "Observation",
                "name": {
                    "coding": [
                        {
                            "system": "http://loinc.org",
                            "code": "8462-4",
                            "display": "BP Diastolic"
                        }
                    ],
                    "text": "BP Diastolic"
                },
                "valueQuantity": {
                    "value": 86,
                    "units": "mm[Hg]",
                    "code": "mm[Hg]",
                    "system": "http://unitsofmeasure.org"
                },
                "issued": "2013-01-22",
                "status": "final",
                "reliability": "ok",
                "extension": [
                    {
                        "url": "http://amida.com/fhir/Profile/extensions#observation-type",
                        "valueCoding": {
                            "code": "8716-3",
                            "display": "Vital signs",
                            "system": "http://loinc.org"
                        }
                    }
                ],
                "subject": {
                    "reference": "Patient/some-id-here-1987",
                    "display": "DOE, JOE"
                }
            }
        },
        {
            "id": "Observation/863a8fa0-92e3-47e1-99a0-cb09a03a3424",
            "content": {
                "resourceType": "Observation",
                "name": {
                    "coding": [
                        {
                            "system": "http://loinc.org",
                            "code": "8480-6",
                            "display": "BP Systolic"
                        }
                    ],
                    "text": "BP Systolic"
                },
                "valueQuantity": {
                    "value": 120,
                    "units": "mm[Hg]",
                    "code": "mm[Hg]",
                    "system": "http://unitsofmeasure.org"
                },
                "issued": "2013-01-22",
                "status": "final",
                "reliability": "ok",
                "extension": [
                    {
                        "url": "http://amida.com/fhir/Profile/extensions#observation-type",
                        "valueCoding": {
                            "code": "8716-3",
                            "display": "Vital signs",
                            "system": "http://loinc.org"
                        }
                    }
                ],
                "subject": {
                    "reference": "Patient/some-id-here-1987",
                    "display": "DOE, JOE"
                }
            }
        },
        {
            "id": "Observation/5f20860e-b2cc-40da-84e7-29c45c4e922f",
            "content": {
                "resourceType": "Observation",
                "name": {
                    "coding": [
                        {
                            "system": "http://loinc.org",
                            "code": "41909-3",
                            "display": "Body Mass Index"
                        }
                    ],
                    "text": "Body Mass Index"
                },
                "valueQuantity": {
                    "value": 44.3429,
                    "units": "kg/m²",
                    "code": "kg/m²",
                    "system": "http://unitsofmeasure.org"
                },
                "issued": "2013-01-22",
                "status": "final",
                "reliability": "ok",
                "extension": [
                    {
                        "url": "http://amida.com/fhir/Profile/extensions#observation-type",
                        "valueCoding": {
                            "code": "8716-3",
                            "display": "Vital signs",
                            "system": "http://loinc.org"
                        }
                    }
                ],
                "subject": {
                    "reference": "Patient/some-id-here-1987",
                    "display": "DOE, JOE"
                }
            }
        },
        {
            "id": "Observation/b7e46aa4-5579-4fe5-9368-dfaba234f5ac",
            "content": {
                "resourceType": "Observation",
                "name": {
                    "coding": [
                        {
                            "system": "http://loinc.org",
                            "code": "8867-4",
                            "display": "Heart Rate"
                        }
                    ],
                    "text": "Heart Rate"
                },
                "valueQuantity": {
                    "value": 88,
                    "units": "/min",
                    "code": "/min",
                    "system": "http://unitsofmeasure.org"
                },
                "issued": "2013-01-22",
                "status": "final",
                "reliability": "ok",
                "extension": [
                    {
                        "url": "http://amida.com/fhir/Profile/extensions#observation-type",
                        "valueCoding": {
                            "code": "8716-3",
                            "display": "Vital signs",
                            "system": "http://loinc.org"
                        }
                    }
                ],
                "subject": {
                    "reference": "Patient/some-id-here-1987",
                    "display": "DOE, JOE"
                }
            }
        },
        {
            "id": "Observation/d354f392-6e48-42a9-ac8d-a752e80f8391",
            "content": {
                "resourceType": "Observation",
                "name": {
                    "coding": [
                        {
                            "system": "http://loinc.org",
                            "code": "8302-2",
                            "display": "Body Height (Measured)"
                        }
                    ],
                    "text": "Body Height (Measured)"
                },
                "valueQuantity": {
                    "value": 48.032,
                    "units": "[in_us]",
                    "code": "[in_us]",
                    "system": "http://unitsofmeasure.org"
                },
                "issued": "2013-01-22",
                "status": "final",
                "reliability": "ok",
                "extension": [
                    {
                        "url": "http://amida.com/fhir/Profile/extensions#observation-type",
                        "valueCoding": {
                            "code": "8716-3",
                            "display": "Vital signs",
                            "system": "http://loinc.org"
                        }
                    }
                ],
                "subject": {
                    "reference": "Patient/some-id-here-1987",
                    "display": "DOE, JOE"
                }
            }
        },
        {
            "id": "Observation/132f55fe-1d13-41a5-b3c1-d9cf0df7d2bd",
            "content": {
                "resourceType": "Observation",
                "name": {
                    "coding": [
                        {
                            "system": "http://loinc.org",
                            "code": "9279-1",
                            "display": "Respiratory Rate"
                        }
                    ],
                    "text": "Respiratory Rate"
                },
                "valueQuantity": {
                    "value": 22,
                    "units": "/min",
                    "code": "/min",
                    "system": "http://unitsofmeasure.org"
                },
                "issued": "2013-01-22",
                "status": "final",
                "reliability": "ok",
                "extension": [
                    {
                        "url": "http://amida.com/fhir/Profile/extensions#observation-type",
                        "valueCoding": {
                            "code": "8716-3",
                            "display": "Vital signs",
                            "system": "http://loinc.org"
                        }
                    }
                ],
                "subject": {
                    "reference": "Patient/some-id-here-1987",
                    "display": "DOE, JOE"
                }
            }
        },
        {
            "id": "Observation/19ae7421-58ee-4707-8da4-bc48087a1a9f",
            "content": {
                "resourceType": "Observation",
                "name": {
                    "coding": [
                        {
                            "system": "http://loinc.org",
                            "code": "8310-5",
                            "display": "Body Temperature"
                        }
                    ],
                    "text": "Body Temperature"
                },
                "valueQuantity": {
                    "value": 37,
                    "units": "C",
                    "code": "C",
                    "system": "http://unitsofmeasure.org"
                },
                "issued": "2013-01-22",
                "status": "final",
                "reliability": "ok",
                "extension": [
                    {
                        "url": "http://amida.com/fhir/Profile/extensions#observation-type",
                        "valueCoding": {
                            "code": "8716-3",
                            "display": "Vital signs",
                            "system": "http://loinc.org"
                        }
                    }
                ],
                "subject": {
                    "reference": "Patient/some-id-here-1987",
                    "display": "DOE, JOE"
                }
            }
        },
        {
            "id": "Observation/1855a3fa-1d44-4538-8b4b-fcceaf2c3fa1",
            "content": {
                "resourceType": "Observation",
                "name": {
                    "coding": [
                        {
                            "system": "http://loinc.org",
                            "code": "3141-9",
                            "display": "Body Weight (Measured)"
                        }
                    ],
                    "text": "Body Weight (Measured)"
                },
                "valueQuantity": {
                    "value": 145.505,
                    "units": "[lb_av]",
                    "code": "[lb_av]",
                    "system": "http://unitsofmeasure.org"
                },
                "issued": "2013-01-22",
                "status": "final",
                "reliability": "ok",
                "extension": [
                    {
                        "url": "http://amida.com/fhir/Profile/extensions#observation-type",
                        "valueCoding": {
                            "code": "8716-3",
                            "display": "Vital signs",
                            "system": "http://loinc.org"
                        }
                    }
                ],
                "subject": {
                    "reference": "Patient/some-id-here-1987",
                    "display": "DOE, JOE"
                }
            }
        },
        {
            "id": "Observation/dca38639-6832-4913-bc64-8c2c1ab49e3d",
            "content": {
                "resourceType": "Observation",
                "name": {
                    "coding": [
                        {
                            "system": "http://loinc.org",
                            "code": "35094-2",
                            "display": "Blood pressure panel"
                        }
                    ],
                    "text": "Blood pressure panel"
                },
                "issued": "2013-01-22",
                "status": "final",
                "reliability": "ok",
                "extension": [
                    {
                        "url": "http://amida.com/fhir/Profile/extensions#observation-type",
                        "valueCoding": {
                            "code": "8716-3",
                            "display": "Vital signs",
                            "system": "http://loinc.org"
                        }
                    }
                ],
                "related": [
                    {
                        "type": "has-component",
                        "target": {
                            "reference": "Observation/e2ea4865-3226-423b-a72a-46eb7fa656bc"
                        }
                    },
                    {
                        "type": "has-component",
                        "target": {
                            "reference": "Observation/863a8fa0-92e3-47e1-99a0-cb09a03a3424"
                        }
                    }
                ],
                "subject": {
                    "reference": "Patient/some-id-here-1987",
                    "display": "DOE, JOE"
                }
            }
        },
        {
            "id": "Observation/5e836b17-ed42-4ae5-9b85-0f8508b68ae8",
            "content": {
                "resourceType": "Observation",
                "name": {
                    "coding": [
                        {
                            "system": "http://loinc.org",
                            "code": "55418-8",
                            "display": "Weight and Height tracking panel"
                        }
                    ],
                    "text": "Weight and Height tracking panel"
                },
                "issued": "2013-01-22",
                "status": "final",
                "reliability": "ok",
                "extension": [
                    {
                        "url": "http://amida.com/fhir/Profile/extensions#observation-type",
                        "valueCoding": {
                            "code": "8716-3",
                            "display": "Vital signs",
                            "system": "http://loinc.org"
                        }
                    }
                ],
                "related": [
                    {
                        "type": "has-component",
                        "target": {
                            "reference": "Observation/d354f392-6e48-42a9-ac8d-a752e80f8391"
                        }
                    },
                    {
                        "type": "has-component",
                        "target": {
                            "reference": "Observation/1855a3fa-1d44-4538-8b4b-fcceaf2c3fa1"
                        }
                    }
                ],
                "subject": {
                    "reference": "Patient/some-id-here-1987",
                    "display": "DOE, JOE"
                }
            }
        },
        {
            "id": "Observation/d161f5b0-a3ad-43dd-bd27-2a3ef8c90e54",
            "content": {
                "resourceType": "Observation",
                "name": {
                    "coding": [
                        {
                            "system": "http://loinc.org",
                            "code": "718-7",
                            "display": "Hgb Bld-mCnc"
                        }
                    ],
                    "text": "Hgb Bld-mCnc"
                },
                "valueQuantity": {
                    "value": 12.6,
                    "units": "g/dL",
                    "code": "g/dL",
                    "system": "http://unitsofmeasure.org"
                },
                "issued": "2013-01-22",
                "status": "final",
                "reliability": "ok",
                "extension": [
                    {
                        "url": "http://amida.com/fhir/Profile/extensions#observation-type",
                        "valueCoding": {
                            "code": "11502-2",
                            "display": "Laboratory report",
                            "system": "http://loinc.org"
                        }
                    }
                ],
                "subject": {
                    "reference": "Patient/some-id-here-1987",
                    "display": "DOE, JOE"
                }
            }
        },
        {
            "id": "Observation/f0294270-22b6-4411-9aeb-a3accd04725f",
            "content": {
                "resourceType": "Observation",
                "name": {
                    "coding": [
                        {
                            "system": "http://loinc.org",
                            "code": "4544-3",
                            "display": "Hct Fr Bld Auto"
                        }
                    ],
                    "text": "Hct Fr Bld Auto"
                },
                "valueQuantity": {
                    "value": 44.5,
                    "units": "%",
                    "code": "%",
                    "system": "http://unitsofmeasure.org"
                },
                "issued": "2013-01-22",
                "status": "final",
                "reliability": "ok",
                "extension": [
                    {
                        "url": "http://amida.com/fhir/Profile/extensions#observation-type",
                        "valueCoding": {
                            "code": "11502-2",
                            "display": "Laboratory report",
                            "system": "http://loinc.org"
                        }
                    }
                ],
                "subject": {
                    "reference": "Patient/some-id-here-1987",
                    "display": "DOE, JOE"
                }
            }
        },
        {
            "id": "Observation/f4f01bd8-ee1d-434d-bb82-2c2349f3cdea",
            "content": {
                "resourceType": "Observation",
                "name": {
                    "coding": [
                        {
                            "system": "http://loinc.org",
                            "code": "6690-2",
                            "display": "WBC # Bld Auto"
                        }
                    ],
                    "text": "WBC # Bld Auto"
                },
                "valueQuantity": {
                    "value": 12.8,
                    "units": "x10E3/uL",
                    "code": "x10E3/uL",
                    "system": "http://unitsofmeasure.org"
                },
                "issued": "2013-01-22",
                "status": "final",
                "reliability": "ok",
                "extension": [
                    {
                        "url": "http://amida.com/fhir/Profile/extensions#observation-type",
                        "valueCoding": {
                            "code": "11502-2",
                            "display": "Laboratory report",
                            "system": "http://loinc.org"
                        }
                    }
                ],
                "subject": {
                    "reference": "Patient/some-id-here-1987",
                    "display": "DOE, JOE"
                }
            }
        },
        {
            "id": "Observation/ff262d82-eff1-4329-952d-c8de08444e45",
            "content": {
                "resourceType": "Observation",
                "name": {
                    "coding": [
                        {
                            "system": "http://loinc.org",
                            "code": "777-3",
                            "display": "Platelet # Bld Auto"
                        }
                    ],
                    "text": "Platelet # Bld Auto"
                },
                "valueQuantity": {
                    "value": 394,
                    "units": "x10E3/uL",
                    "code": "x10E3/uL",
                    "system": "http://unitsofmeasure.org"
                },
                "issued": "2013-01-22",
                "status": "final",
                "reliability": "ok",
                "extension": [
                    {
                        "url": "http://amida.com/fhir/Profile/extensions#observation-type",
                        "valueCoding": {
                            "code": "11502-2",
                            "display": "Laboratory report",
                            "system": "http://loinc.org"
                        }
                    }
                ],
                "subject": {
                    "reference": "Patient/some-id-here-1987",
                    "display": "DOE, JOE"
                }
            }
        },
        {
            "id": "Observation/53ab404b-bb5e-41f9-b24f-b15b322b3693",
            "content": {
                "resourceType": "Observation",
                "name": {
                    "coding": [
                        {
                            "system": "http://loinc.org",
                            "code": "2093-3",
                            "display": "Cholest SerPl-mCnc"
                        }
                    ],
                    "text": "Cholest SerPl-mCnc"
                },
                "valueQuantity": {
                    "value": 299,
                    "units": "mg/dL",
                    "code": "mg/dL",
                    "system": "http://unitsofmeasure.org"
                },
                "issued": "2013-01-22",
                "status": "final",
                "reliability": "ok",
                "extension": [
                    {
                        "url": "http://amida.com/fhir/Profile/extensions#observation-type",
                        "valueCoding": {
                            "code": "11502-2",
                            "display": "Laboratory report",
                            "system": "http://loinc.org"
                        }
                    }
                ],
                "subject": {
                    "reference": "Patient/some-id-here-1987",
                    "display": "DOE, JOE"
                }
            }
        },
        {
            "id": "Observation/ec9553a5-9913-4c00-b94a-bced89709466",
            "content": {
                "resourceType": "Observation",
                "name": {
                    "coding": [
                        {
                            "system": "http://loinc.org",
                            "code": "2085-9",
                            "display": "HDLc SerPl-mCnc"
                        }
                    ],
                    "text": "HDLc SerPl-mCnc"
                },
                "valueQuantity": {
                    "value": 18,
                    "units": "mg/dL",
                    "code": "mg/dL",
                    "system": "http://unitsofmeasure.org"
                },
                "issued": "2013-01-22",
                "status": "final",
                "reliability": "ok",
                "extension": [
                    {
                        "url": "http://amida.com/fhir/Profile/extensions#observation-type",
                        "valueCoding": {
                            "code": "11502-2",
                            "display": "Laboratory report",
                            "system": "http://loinc.org"
                        }
                    }
                ],
                "subject": {
                    "reference": "Patient/some-id-here-1987",
                    "display": "DOE, JOE"
                }
            }
        },
        {
            "id": "Observation/f0e87ac0-b7d1-4157-816f-1b32db8358cd",
            "content": {
                "resourceType": "Observation",
                "name": {
                    "coding": [
                        {
                            "system": "http://loinc.org",
                            "code": "2089-1",
                            "display": "LDLc SerPl-mCnc"
                        }
                    ],
                    "text": "LDLc SerPl-mCnc"
                },
                "valueQuantity": {
                    "value": 189,
                    "units": "mg/dL",
                    "code": "mg/dL",
                    "system": "http://unitsofmeasure.org"
                },
                "issued": "2013-01-22",
                "status": "final",
                "reliability": "ok",
                "extension": [
                    {
                        "url": "http://amida.com/fhir/Profile/extensions#observation-type",
                        "valueCoding": {
                            "code": "11502-2",
                            "display": "Laboratory report",
                            "system": "http://loinc.org"
                        }
                    }
                ],
                "subject": {
                    "reference": "Patient/some-id-here-1987",
                    "display": "DOE, JOE"
                }
            }
        },
        {
            "id": "Observation/dd1c1a0f-1e45-4380-a535-6164d02dddc7",
            "content": {
                "resourceType": "Observation",
                "name": {
                    "coding": [
                        {
                            "system": "http://loinc.org",
                            "code": "2575-9",
                            "display": "PreB-LP SerPl-mCnc"
                        }
                    ],
                    "text": "PreB-LP SerPl-mCnc"
                },
                "valueQuantity": {
                    "value": 35,
                    "units": "mg/dL",
                    "code": "mg/dL",
                    "system": "http://unitsofmeasure.org"
                },
                "issued": "2013-01-22",
                "status": "final",
                "reliability": "ok",
                "extension": [
                    {
                        "url": "http://amida.com/fhir/Profile/extensions#observation-type",
                        "valueCoding": {
                            "code": "11502-2",
                            "display": "Laboratory report",
                            "system": "http://loinc.org"
                        }
                    }
                ],
                "subject": {
                    "reference": "Patient/some-id-here-1987",
                    "display": "DOE, JOE"
                }
            }
        },
        {
            "id": "Observation/e04014e4-537d-4644-98c3-1b53303622df",
            "content": {
                "resourceType": "Observation",
                "name": {
                    "coding": [
                        {
                            "system": "http://loinc.org",
                            "code": "2571-8",
                            "display": "Trigl SerPl-mCnc"
                        }
                    ],
                    "text": "Trigl SerPl-mCnc"
                },
                "valueQuantity": {
                    "value": 5000,
                    "units": "mg/dL",
                    "code": "mg/dL",
                    "system": "http://unitsofmeasure.org"
                },
                "issued": "2013-01-22",
                "status": "final",
                "reliability": "ok",
                "extension": [
                    {
                        "url": "http://amida.com/fhir/Profile/extensions#observation-type",
                        "valueCoding": {
                            "code": "11502-2",
                            "display": "Laboratory report",
                            "system": "http://loinc.org"
                        }
                    }
                ],
                "subject": {
                    "reference": "Patient/some-id-here-1987",
                    "display": "DOE, JOE"
                }
            }
        },
        {
            "id": "Observation/3ae811bf-82dc-48a9-9294-815bd1693f68",
            "content": {
                "resourceType": "Observation",
                "name": {
                    "coding": [
                        {
                            "system": "http://loinc.org",
                            "code": "30522-7",
                            "display": "CRP SerPl High Sens-mCnc"
                        }
                    ],
                    "text": "CRP SerPl High Sens-mCnc"
                },
                "valueQuantity": {
                    "value": 1.8,
                    "units": "mg/L",
                    "code": "mg/L",
                    "system": "http://unitsofmeasure.org"
                },
                "issued": "2013-01-22",
                "status": "final",
                "reliability": "ok",
                "extension": [
                    {
                        "url": "http://amida.com/fhir/Profile/extensions#observation-type",
                        "valueCoding": {
                            "code": "11502-2",
                            "display": "Laboratory report",
                            "system": "http://loinc.org"
                        }
                    }
                ],
                "subject": {
                    "reference": "Patient/some-id-here-1987",
                    "display": "DOE, JOE"
                }
            }
        },
        {
            "id": "MedicationPrescription/755a77d0-a9c2-4137-b23e-1afe5ca2f91a",
            "content": {
                "resourceType": "MedicationPrescription",
                "status": "active",
                "dosageInstruction": [
                    {
                        "doseQuantity": {
                            "value": 1,
                            "units": "tablet",
                            "code": "tablet",
                            "system": "http://unitsofmeasure.org"
                        }
                    }
                ],
                "text": {
                    "status": "generated",
                    "div": "take 1 tablet (2 mg) by oral route every 6 hours as needed"
                },
                "medication": {
                    "reference": "Medication/db2feec0-37ff-466e-8ef8-ee79e6350402",
                    "display": "Hydromorphone Hydrochloride 2 MG Oral Tablet"
                },
                "patient": {
                    "reference": "Patient/some-id-here-1987",
                    "display": "DOE, JOE"
                }
            }
        },
        {
            "id": "MedicationAdministration/75b0089d-90ce-4256-b480-11c3401a610a",
            "content": {
                "resourceType": "MedicationAdministration",
                "status": "completed",
                "practitioner": {
                    "reference": "Practitioner/unknown",
                    "display": "Unknown"
                },
                "dosage": [
                    {
                        "quantity": {
                            "value": 1,
                            "units": "tablet",
                            "code": "tablet",
                            "system": "http://unitsofmeasure.org"
                        }
                    }
                ],
                "prescription": {
                    "reference": "MedicationPrescription/755a77d0-a9c2-4137-b23e-1afe5ca2f91a",
                    "display": "take 1 tablet (2 mg) by oral route every 6 hours as needed"
                },
                "medication": {
                    "reference": "Medication/8b07c472-b912-49d4-b1ee-5fb11d2f9425",
                    "display": "Hydromorphone Hydrochloride 2 MG Oral Tablet"
                },
                "patient": {
                    "reference": "Patient/some-id-here-1987",
                    "display": "DOE, JOE"
                }
            }
        },
        {
            "id": "MedicationPrescription/3bdbaf92-1e12-48e6-9f65-b65fc9a652d6",
            "content": {
                "resourceType": "MedicationPrescription",
                "status": "active",
                "dosageInstruction": [
                    {
                        "doseQuantity": {
                            "value": 1,
                            "units": "milliliter",
                            "code": "milliliter",
                            "system": "http://unitsofmeasure.org"
                        }
                    }
                ],
                "text": {
                    "status": "generated",
                    "div": "inject 1 milliliter now in offce"
                },
                "medication": {
                    "reference": "Medication/4c05df6e-da6a-4105-819a-b1272f2bce93",
                    "display": "Meperidine Hydrochloride 50 MG/ML Injectable Solution"
                },
                "patient": {
                    "reference": "Patient/some-id-here-1987",
                    "display": "DOE, JOE"
                }
            }
        },
        {
            "id": "MedicationAdministration/4a46e7b3-037f-4990-874b-99b55ff072d4",
            "content": {
                "resourceType": "MedicationAdministration",
                "status": "completed",
                "practitioner": {
                    "reference": "Practitioner/unknown",
                    "display": "Unknown"
                },
                "dosage": [
                    {
                        "quantity": {
                            "value": 1,
                            "units": "milliliter",
                            "code": "milliliter",
                            "system": "http://unitsofmeasure.org"
                        }
                    }
                ],
                "prescription": {
                    "reference": "MedicationPrescription/3bdbaf92-1e12-48e6-9f65-b65fc9a652d6",
                    "display": "inject 1 milliliter now in offce"
                },
                "medication": {
                    "reference": "Medication/6ffd1eae-e3fa-45f4-9c9d-f204c20cc46b",
                    "display": "Meperidine Hydrochloride 50 MG/ML Injectable Solution"
                },
                "patient": {
                    "reference": "Patient/some-id-here-1987",
                    "display": "DOE, JOE"
                }
            }
        },
        {
            "id": "MedicationPrescription/8486156f-45c9-4c8a-bae0-0680c46b3932",
            "content": {
                "resourceType": "MedicationPrescription",
                "status": "active",
                "dateWritten": "2013-01-22",
                "dosageInstruction": [
                    {
                        "doseQuantity": {
                            "value": 1,
                            "units": "suppository",
                            "code": "suppository",
                            "system": "http://unitsofmeasure.org"
                        },
                        "timingPeriod": {
                            "start": "2013-01-22",
                            "end": "2013-01-29"
                        }
                    }
                ],
                "text": {
                    "status": "generated",
                    "div": "insert 1 suppository (25 mg) by rectal route 3 times per day for 7 days"
                },
                "medication": {
                    "reference": "Medication/b918aa0a-2e5f-4ef5-90b7-b5d2005a9746",
                    "display": "Hydrocortisone 25 MG Rectal Suppository"
                },
                "patient": {
                    "reference": "Patient/some-id-here-1987",
                    "display": "DOE, JOE"
                }
            }
        },
        {
            "id": "MedicationPrescription/c4b1986f-ca95-4ccc-aceb-d7ed65bc4fdf",
            "content": {
                "resourceType": "MedicationPrescription",
                "status": "active",
                "dateWritten": "2013-01-22",
                "dosageInstruction": [
                    {
                        "doseQuantity": {
                            "value": 1,
                            "units": "tablet",
                            "code": "tablet",
                            "system": "http://unitsofmeasure.org"
                        },
                        "timingPeriod": {
                            "start": "2013-01-22",
                            "end": "2013-02-01"
                        }
                    }
                ],
                "text": {
                    "status": "generated",
                    "div": "take 1 tablet by oral route every 4-6 hours as needed for pain for 10 days"
                },
                "medication": {
                    "reference": "Medication/cab5fdb2-d32a-4c25-b1cb-ebe1902b344d",
                    "display": "Acetaminophen 500 MG / Hydrocodone Bitartrate 10 MG Oral Tablet"
                },
                "patient": {
                    "reference": "Patient/some-id-here-1987",
                    "display": "DOE, JOE"
                }
            }
        },
        {
            "id": "Substance/4e122e9d-2a28-4cd9-8de3-fbcbb1c3f93f",
            "content": {
                "resourceType": "Substance",
                "type": {
                    "coding": [
                        {
                            "system": "http://www.nlm.nih.gov/research/umls/rxnorm",
                            "code": "215674",
                            "display": "Bicillin L-A"
                        }
                    ],
                    "text": "Bicillin L-A"
                }
            }
        },
        {
            "id": "Medication/db2feec0-37ff-466e-8ef8-ee79e6350402",
            "content": {
                "resourceType": "Medication",
                "name": "Hydromorphone Hydrochloride 2 MG Oral Tablet",
                "code": {
                    "coding": [
                        {
                            "system": "http://www.nlm.nih.gov/research/umls/rxnorm",
                            "code": "897696",
                            "display": "Hydromorphone Hydrochloride 2 MG Oral Tablet"
                        }
                    ],
                    "text": "Hydromorphone Hydrochloride 2 MG Oral Tablet"
                }
            }
        },
        {
            "id": "Medication/8b07c472-b912-49d4-b1ee-5fb11d2f9425",
            "content": {
                "resourceType": "Medication",
                "name": "Hydromorphone Hydrochloride 2 MG Oral Tablet",
                "code": {
                    "coding": [
                        {
                            "system": "http://www.nlm.nih.gov/research/umls/rxnorm",
                            "code": "897696",
                            "display": "Hydromorphone Hydrochloride 2 MG Oral Tablet"
                        }
                    ],
                    "text": "Hydromorphone Hydrochloride 2 MG Oral Tablet"
                }
            }
        },
        {
            "id": "Medication/4c05df6e-da6a-4105-819a-b1272f2bce93",
            "content": {
                "resourceType": "Medication",
                "name": "Meperidine Hydrochloride 50 MG/ML Injectable Solution",
                "code": {
                    "coding": [
                        {
                            "system": "http://www.nlm.nih.gov/research/umls/rxnorm",
                            "code": "861463",
                            "display": "Meperidine Hydrochloride 50 MG/ML Injectable Solution"
                        }
                    ],
                    "text": "Meperidine Hydrochloride 50 MG/ML Injectable Solution"
                }
            }
        },
        {
            "id": "Medication/6ffd1eae-e3fa-45f4-9c9d-f204c20cc46b",
            "content": {
                "resourceType": "Medication",
                "name": "Meperidine Hydrochloride 50 MG/ML Injectable Solution",
                "code": {
                    "coding": [
                        {
                            "system": "http://www.nlm.nih.gov/research/umls/rxnorm",
                            "code": "861463",
                            "display": "Meperidine Hydrochloride 50 MG/ML Injectable Solution"
                        }
                    ],
                    "text": "Meperidine Hydrochloride 50 MG/ML Injectable Solution"
                }
            }
        },
        {
            "id": "Medication/b918aa0a-2e5f-4ef5-90b7-b5d2005a9746",
            "content": {
                "resourceType": "Medication",
                "name": "Hydrocortisone 25 MG Rectal Suppository",
                "code": {
                    "coding": [
                        {
                            "system": "http://www.nlm.nih.gov/research/umls/rxnorm",
                            "code": "310896",
                            "display": "Hydrocortisone 25 MG Rectal Suppository"
                        }
                    ],
                    "text": "Hydrocortisone 25 MG Rectal Suppository"
                }
            }
        },
        {
            "id": "Medication/cab5fdb2-d32a-4c25-b1cb-ebe1902b344d",
            "content": {
                "resourceType": "Medication",
                "name": "Acetaminophen 500 MG / Hydrocodone Bitartrate 10 MG Oral Tablet",
                "code": {
                    "coding": [
                        {
                            "system": "http://www.nlm.nih.gov/research/umls/rxnorm",
                            "code": "857107",
                            "display": "Acetaminophen 500 MG / Hydrocodone Bitartrate 10 MG Oral Tablet"
                        }
                    ],
                    "text": "Acetaminophen 500 MG / Hydrocodone Bitartrate 10 MG Oral Tablet"
                }
            }
        }
    ]
}