{
    "resourceType": "Bundle",
    "total": 19,
    "entry": [
        {
            "resource": {
                "id": "Patient/0",
                "resourceType": "Patient",
                "identifier": [
                    {
                        "system": "urn:oid:2.16.840.1.113883.3.441.1.50.300011.51",
                        "value": "26933"
                    }
                ],
                "name": [
                    {
                        "family": [
                            "Jones"
                        ],
                        "given": [
                            "Isabella"
                        ]
                    }
                ],
                "telecom": [
                    {
                        "system": "phone",
                        "value": "816-276-6909",
                        "use": "home"
                    }
                ],
                "gender": "female",
                "birthDate": "1947-05-01",
                "address": [
                    {
                        "line": [
                            "1357 Amber Drive"
                        ],
                        "city": "Aloha",
                        "state": "OR",
                        "postalCode": "97006",
                        "country": "UNK"
                    }
                ],
                "maritalStatus": {
                    "coding": [
                        {
                            "system": "http://hl7.org/fhir/v3/MaritalStatus",
                            "code": "S",
                            "display": "Never Married"
                        }
                    ],
                    "text": "Never Married"
                },
                "communication": [
                    {
                        "language": {
                            "coding": [
                                {
                                    "code": "eng",
                                    "system": "urn:ietf:params:language"
                                }
                            ]
                        }
                    }
                ],
                "extension": [
                    {
                        "url": "http://hl7.org/fhir/StructureDefinition/us-core-race",
                        "valueCodeableConcept": {
                            "coding": [
                                {
                                    "system": "urn:oid:2.16.840.1.113883.6.238",
                                    "code": "2106-3",
                                    "display": "White"
                                }
                            ]
                        }
                    },
                    {
                        "url": "http://hl7.org/fhir/StructureDefinition/us-core-ethnicity",
                        "valueCodeableConcept": {
                            "coding": [
                                {
                                    "system": "urn:oid:2.16.840.1.113883.6.238",
                                    "code": "2186-5",
                                    "display": "Not Hispanic or Latino"
                                }
                            ]
                        }
                    }
                ]
            }
        },
        {
            "resource": {
                "id": "AllergyIntolerance/1",
                "resourceType": "AllergyIntolerance",
                "status": "confirmed",
                "substance": {
                    "coding": [
                        {
                            "system": "http://www.nlm.nih.gov/research/umls/rxnorm",
                            "code": "1001473",
                            "display": "Ecpirin"
                        }
                    ],
                    "text": "Ecpirin"
                },
                "patient": {
                    "reference": "Patient/0",
                    "display": "Jones, Isabella"
                }
            }
        },
        {
            "resource": {
                "id": "AllergyIntolerance/2",
                "resourceType": "AllergyIntolerance",
                "status": "confirmed",
                "substance": {
                    "text": "codeine sulfate"
                },
                "patient": {
                    "reference": "Patient/0",
                    "display": "Jones, Isabella"
                }
            }
        },
        {
            "resource": {
                "id": "Observation/3",
                "resourceType": "Observation",
                "code": {
                    "coding": [
                        {
                            "system": "http://loinc.org",
                            "code": "8462-4",
                            "display": "BP Diastolic"
                        }
                    ],
                    "text": "BP Diastolic"
                },
                "valueQuantity": {
                    "value": 92,
                    "units": "mm[Hg]"
                },
                "issued": "2012-08-06",
                "status": "final",
                "reliability": "ok",
                "subject": {
                    "reference": "Patient/0",
                    "display": "Jones, Isabella"
                }
            }
        },
        {
            "resource": {
                "id": "Observation/4",
                "resourceType": "Observation",
                "code": {
                    "coding": [
                        {
                            "system": "http://loinc.org",
                            "code": "8480-6",
                            "display": "BP Systolic"
                        }
                    ],
                    "text": "BP Systolic"
                },
                "valueQuantity": {
                    "value": 135,
                    "units": "mm[Hg]"
                },
                "issued": "2012-08-06",
                "status": "final",
                "reliability": "ok",
                "subject": {
                    "reference": "Patient/0",
                    "display": "Jones, Isabella"
                }
            }
        },
        {
            "resource": {
                "id": "Observation/5",
                "resourceType": "Observation",
                "code": {
                    "coding": [
                        {
                            "system": "http://loinc.org",
                            "code": "41909-3",
                            "display": "Body Mass Index"
                        }
                    ],
                    "text": "Body Mass Index"
                },
                "valueQuantity": {
                    "value": 28.089,
                    "units": "kg/m²"
                },
                "issued": "2012-08-06",
                "status": "final",
                "reliability": "ok",
                "subject": {
                    "reference": "Patient/0",
                    "display": "Jones, Isabella"
                }
            }
        },
        {
            "resource": {
                "id": "Observation/6",
                "resourceType": "Observation",
                "code": {
                    "coding": [
                        {
                            "system": "http://loinc.org",
                            "code": "8302-2",
                            "display": "Body Height (Measured)"
                        }
                    ],
                    "text": "Body Height (Measured)"
                },
                "valueQuantity": {
                    "value": 69.685,
                    "units": "[in_us]"
                },
                "issued": "2012-08-06",
                "status": "final",
                "reliability": "ok",
                "subject": {
                    "reference": "Patient/0",
                    "display": "Jones, Isabella"
                }
            }
        },
        {
            "resource": {
                "id": "Observation/7",
                "resourceType": "Observation",
                "code": {
                    "coding": [
                        {
                            "system": "http://loinc.org",
                            "code": "3141-9",
                            "display": "Body Weight (Measured)"
                        }
                    ],
                    "text": "Body Weight (Measured)"
                },
                "valueQuantity": {
                    "value": 194.007,
                    "units": "[lb_av]"
                },
                "issued": "2012-08-06",
                "status": "final",
                "reliability": "ok",
                "subject": {
                    "reference": "Patient/0",
                    "display": "Jones, Isabella"
                }
            }
        },
        {
            "resource": {
                "id": "Observation/8",
                "resourceType": "Observation",
                "code": {
                    "coding": [
                        {
                            "system": "http://loinc.org",
                            "code": "35094-2",
                            "display": "Blood pressure panel"
                        }
                    ],
                    "text": "Blood pressure panel"
                },
                "issued": "2012-08-06",
                "status": "final",
                "reliability": "ok",
                "related": [
                    {
                        "type": "has-component",
                        "target": {
                            "reference": "Observation/3"
                        }
                    },
                    {
                        "type": "has-component",
                        "target": {
                            "reference": "Observation/4"
                        }
                    }
                ],
                "subject": {
                    "reference": "Patient/0",
                    "display": "Jones, Isabella"
                }
            }
        },
        {
            "resource": {
                "id": "Observation/9",
                "resourceType": "Observation",
                "code": {
                    "coding": [
                        {
                            "system": "http://loinc.org",
                            "code": "55418-8",
                            "display": "Weight and Height tracking panel"
                        }
                    ],
                    "text": "Weight and Height tracking panel"
                },
                "issued": "2012-08-06",
                "status": "final",
                "reliability": "ok",
                "related": [
                    {
                        "type": "has-component",
                        "target": {
                            "reference": "Observation/6"
                        }
                    },
                    {
                        "type": "has-component",
                        "target": {
                            "reference": "Observation/7"
                        }
                    }
                ],
                "subject": {
                    "reference": "Patient/0",
                    "display": "Jones, Isabella"
                }
            }
        },
        {
            "resource": {
                "id": "Observation/10",
                "resourceType": "Observation",
                "code": {
                    "coding": [
                        {
                            "system": "http://loinc.org",
                            "code": "4544-3",
                            "display": "Hct Fr Bld Auto"
                        }
                    ],
                    "text": "Hct Fr Bld Auto"
                },
                "valueQuantity": {
                    "value": 45,
                    "units": "%"
                },
                "issued": "2012-08-06",
                "status": "final",
                "reliability": "ok",
                "subject": {
                    "reference": "Patient/0",
                    "display": "Jones, Isabella"
                }
            }
        },
        {
            "resource": {
                "id": "Observation/11",
                "resourceType": "Observation",
                "code": {
                    "coding": [
                        {
                            "system": "http://loinc.org",
                            "code": "718-7",
                            "display": "Hgb Bld-mCnc"
                        }
                    ],
                    "text": "Hgb Bld-mCnc"
                },
                "valueQuantity": {
                    "value": 14.2,
                    "units": "g/dL"
                },
                "issued": "2012-08-06",
                "status": "final",
                "reliability": "ok",
                "subject": {
                    "reference": "Patient/0",
                    "display": "Jones, Isabella"
                }
            }
        },
        {
            "resource": {
                "id": "Observation/12",
                "resourceType": "Observation",
                "code": {
                    "coding": [
                        {
                            "system": "http://loinc.org",
                            "code": "777-3",
                            "display": "Platelet # Bld Auto"
                        }
                    ],
                    "text": "Platelet # Bld Auto"
                },
                "valueQuantity": {
                    "value": 220,
                    "units": "x10E3/uL"
                },
                "issued": "2012-08-06",
                "status": "final",
                "reliability": "ok",
                "subject": {
                    "reference": "Patient/0",
                    "display": "Jones, Isabella"
                }
            }
        },
        {
            "resource": {
                "id": "Observation/13",
                "resourceType": "Observation",
                "code": {
                    "coding": [
                        {
                            "system": "http://loinc.org",
                            "code": "6690-2",
                            "display": "WBC # Bld Auto"
                        }
                    ],
                    "text": "WBC # Bld Auto"
                },
                "valueQuantity": {
                    "value": 7.6,
                    "units": "x10E3/uL"
                },
                "issued": "2012-08-06",
                "status": "final",
                "reliability": "ok",
                "subject": {
                    "reference": "Patient/0",
                    "display": "Jones, Isabella"
                }
            }
        },
        {
            "resource": {
                "id": "MedicationPrescription/14",
                "resourceType": "MedicationPrescription",
                "status": "active",
                "dosageInstruction": [
                    {
                        "doseQuantity": {
                            "value": 1,
                            "units": "tablet"
                        }
                    }
                ],
                "text": {
                    "status": "generated",
                    "div": "take 1 tablet (500 mg) by oral route every 12 hours for 14 days"
                },
                "contained": [
                    {
                        "id": "med",
                        "resourceType": "Medication",
                        "name": "clarithromycin Oral Tablet 500 mg",
                        "code": {
                            "coding": [
                                {
                                    "system": "http://www.nlm.nih.gov/research/umls/rxnorm",
                                    "code": "197517",
                                    "display": "Clarithromycin 500 MG Oral Tablet"
                                }
                            ],
                            "text": "Clarithromycin 500 MG Oral Tablet"
                        }
                    }
                ],
                "medication": {
                    "reference": "#med",
                    "display": "clarithromycin Oral Tablet 500 mg"
                },
                "patient": {
                    "reference": "Patient/0",
                    "display": "Jones, Isabella"
                }
            }
        },
        {
            "resource": {
                "id": "MedicationAdministration/15",
                "resourceType": "MedicationAdministration",
                "status": "completed",
                "dosage": {
                    "quantity": {
                        "value": 1,
                        "units": "tablet"
                    }
                },
                "prescription": {
                    "reference": "MedicationPrescription/14",
                    "display": "take 1 tablet (500 mg) by oral route every 12 hours for 14 days"
                },
                "contained": [
                    {
                        "id": "med",
                        "resourceType": "Medication",
                        "name": "clarithromycin Oral Tablet 500 mg",
                        "code": {
                            "coding": [
                                {
                                    "system": "http://www.nlm.nih.gov/research/umls/rxnorm",
                                    "code": "197517",
                                    "display": "Clarithromycin 500 MG Oral Tablet"
                                }
                            ],
                            "text": "Clarithromycin 500 MG Oral Tablet"
                        }
                    }
                ],
                "medication": {
                    "reference": "#med",
                    "display": "clarithromycin Oral Tablet 500 mg"
                },
                "patient": {
                    "reference": "Patient/0",
                    "display": "Jones, Isabella"
                }
            }
        },
        {
            "resource": {
                "id": "MedicationPrescription/16",
                "resourceType": "MedicationPrescription",
                "status": "active",
                "dosageInstruction": [
                    {
                        "doseQuantity": {
                            "value": 2,
                            "units": "tablet"
                        }
                    }
                ],
                "text": {
                    "status": "generated",
                    "div": "take 2 tablets (50 mg) by oral route once daily for 30 days"
                },
                "contained": [
                    {
                        "id": "med",
                        "resourceType": "Medication",
                        "name": "metoprolol tartrate Oral Tablet 25 mg",
                        "code": {
                            "coding": [
                                {
                                    "system": "http://www.nlm.nih.gov/research/umls/rxnorm",
                                    "code": "866924",
                                    "display": "Metoprolol Tartrate 25 MG Oral Tablet"
                                }
                            ],
                            "text": "Metoprolol Tartrate 25 MG Oral Tablet"
                        }
                    }
                ],
                "medication": {
                    "reference": "#med",
                    "display": "metoprolol tartrate Oral Tablet 25 mg"
                },
                "patient": {
                    "reference": "Patient/0",
                    "display": "Jones, Isabella"
                }
            }
        },
        {
            "resource": {
                "id": "MedicationAdministration/17",
                "resourceType": "MedicationAdministration",
                "status": "completed",
                "dosage": {
                    "quantity": {
                        "value": 2,
                        "units": "tablet"
                    }
                },
                "prescription": {
                    "reference": "MedicationPrescription/16",
                    "display": "take 2 tablets (50 mg) by oral route once daily for 30 days"
                },
                "contained": [
                    {
                        "id": "med",
                        "resourceType": "Medication",
                        "name": "metoprolol tartrate Oral Tablet 25 mg",
                        "code": {
                            "coding": [
                                {
                                    "system": "http://www.nlm.nih.gov/research/umls/rxnorm",
                                    "code": "866924",
                                    "display": "Metoprolol Tartrate 25 MG Oral Tablet"
                                }
                            ],
                            "text": "Metoprolol Tartrate 25 MG Oral Tablet"
                        }
                    }
                ],
                "medication": {
                    "reference": "#med",
                    "display": "metoprolol tartrate Oral Tablet 25 mg"
                },
                "patient": {
                    "reference": "Patient/0",
                    "display": "Jones, Isabella"
                }
            }
        },
        {
            "resource": {
                "id": "MedicationPrescription/18",
                "resourceType": "MedicationPrescription",
                "status": "active",
                "dateWritten": "2012-08-06",
                "dosageInstruction": [
                    {
                        "doseQuantity": {
                            "value": 2,
                            "units": "Unit"
                        },
                        "scheduledPeriod": {
                            "start": "2012-08-06"
                        }
                    }
                ],
                "text": {
                    "status": "generated",
                    "div": "inhale 2 puffs once"
                },
                "contained": [
                    {
                        "id": "med",
                        "resourceType": "Medication",
                        "name": "Proventil HFA Inhalation HFA Aerosol Inhaler 90 mcg/actuation",
                        "code": {
                            "coding": [
                                {
                                    "system": "http://www.nlm.nih.gov/research/umls/rxnorm",
                                    "code": "745679",
                                    "display": "200 ACTUAT Albuterol 0.09 MG/ACTUAT Metered Dose Inhaler"
                                }
                            ],
                            "text": "200 ACTUAT Albuterol 0.09 MG/ACTUAT Metered Dose Inhaler"
                        }
                    }
                ],
                "medication": {
                    "reference": "#med",
                    "display": "Proventil HFA Inhalation HFA Aerosol Inhaler 90 mcg/actuation"
                },
                "patient": {
                    "reference": "Patient/0",
                    "display": "Jones, Isabella"
                }
            }
        }
    ]
}