{
    "resourceType": "Bundle",
    "totalResults": 17,
    "entry": [
        {
            "id": "AllergyIntolerance/8cfea00e-2874-40f3-bf73-b3091d45a7bf",
            "content": {
                "resourceType": "AllergyIntolerance",
                "sensitivityType": "allergy",
                "status": "confirmed",
                "contained": [
                    {
                        "id": "allergen",
                        "resourceType": "Substance",
                        "type": {
                            "coding": [
                                {
                                    "system": "http://www.nlm.nih.gov/research/umls/rxnorm",
                                    "code": "1001473",
                                    "display": "Ecpirin"
                                }
                            ],
                            "text": "Ecpirin"
                        }
                    }
                ],
                "substance": {
                    "reference": "#allergen",
                    "display": "Ecpirin"
                }
            }
        },
        {
            "id": "Observation/5554ba26-c1a9-4062-a17b-8873b0c06f4e",
            "content": {
                "resourceType": "Observation",
                "name": {
                    "coding": [
                        {
                            "system": "http://loinc.org",
                            "code": "8462-4",
                            "display": "BP Diastolic"
                        }
                    ],
                    "text": "BP Diastolic"
                },
                "valueQuantity": {
                    "value": 92,
                    "units": "mm[Hg]",
                    "code": "mm[Hg]",
                    "system": "http://unitsofmeasure.org"
                },
                "issued": "2012-08-06",
                "status": "final",
                "reliability": "ok",
                "extension": [
                    {
                        "url": "http://amida.com/fhir/Profile/extensions#observation-type",
                        "valueCoding": {
                            "code": "8716-3",
                            "display": "Vital signs",
                            "system": "http://loinc.org"
                        }
                    }
                ]
            }
        },
        {
            "id": "Observation/0db760aa-ab5c-4e34-8b75-668123245bce",
            "content": {
                "resourceType": "Observation",
                "name": {
                    "coding": [
                        {
                            "system": "http://loinc.org",
                            "code": "8480-6",
                            "display": "BP Systolic"
                        }
                    ],
                    "text": "BP Systolic"
                },
                "valueQuantity": {
                    "value": 135,
                    "units": "mm[Hg]",
                    "code": "mm[Hg]",
                    "system": "http://unitsofmeasure.org"
                },
                "issued": "2012-08-06",
                "status": "final",
                "reliability": "ok",
                "extension": [
                    {
                        "url": "http://amida.com/fhir/Profile/extensions#observation-type",
                        "valueCoding": {
                            "code": "8716-3",
                            "display": "Vital signs",
                            "system": "http://loinc.org"
                        }
                    }
                ]
            }
        },
        {
            "id": "Observation/e8d63731-c6c1-4162-b093-eace3fa603d2",
            "content": {
                "resourceType": "Observation",
                "name": {
                    "coding": [
                        {
                            "system": "http://loinc.org",
                            "code": "41909-3",
                            "display": "Body Mass Index"
                        }
                    ],
                    "text": "Body Mass Index"
                },
                "valueQuantity": {
                    "value": 28.089,
                    "units": "kg/m²",
                    "code": "kg/m²",
                    "system": "http://unitsofmeasure.org"
                },
                "issued": "2012-08-06",
                "status": "final",
                "reliability": "ok",
                "extension": [
                    {
                        "url": "http://amida.com/fhir/Profile/extensions#observation-type",
                        "valueCoding": {
                            "code": "8716-3",
                            "display": "Vital signs",
                            "system": "http://loinc.org"
                        }
                    }
                ]
            }
        },
        {
            "id": "Observation/6f885356-f203-47ac-b88b-e52f80084ca3",
            "content": {
                "resourceType": "Observation",
                "name": {
                    "coding": [
                        {
                            "system": "http://loinc.org",
                            "code": "8302-2",
                            "display": "Body Height (Measured)"
                        }
                    ],
                    "text": "Body Height (Measured)"
                },
                "valueQuantity": {
                    "value": 69.685,
                    "units": "[in_us]",
                    "code": "[in_us]",
                    "system": "http://unitsofmeasure.org"
                },
                "issued": "2012-08-06",
                "status": "final",
                "reliability": "ok",
                "extension": [
                    {
                        "url": "http://amida.com/fhir/Profile/extensions#observation-type",
                        "valueCoding": {
                            "code": "8716-3",
                            "display": "Vital signs",
                            "system": "http://loinc.org"
                        }
                    }
                ]
            }
        },
        {
            "id": "Observation/c6d6bc32-dd7f-479d-b296-35b40893d5e2",
            "content": {
                "resourceType": "Observation",
                "name": {
                    "coding": [
                        {
                            "system": "http://loinc.org",
                            "code": "3141-9",
                            "display": "Body Weight (Measured)"
                        }
                    ],
                    "text": "Body Weight (Measured)"
                },
                "valueQuantity": {
                    "value": 194.007,
                    "units": "[lb_av]",
                    "code": "[lb_av]",
                    "system": "http://unitsofmeasure.org"
                },
                "issued": "2012-08-06",
                "status": "final",
                "reliability": "ok",
                "extension": [
                    {
                        "url": "http://amida.com/fhir/Profile/extensions#observation-type",
                        "valueCoding": {
                            "code": "8716-3",
                            "display": "Vital signs",
                            "system": "http://loinc.org"
                        }
                    }
                ]
            }
        },
        {
            "id": "Observation/04171b99-3a4f-4244-94d8-9ab3ffb0736e",
            "content": {
                "resourceType": "Observation",
                "name": {
                    "coding": [
                        {
                            "system": "http://loinc.org",
                            "code": "35094-2",
                            "display": "Blood pressure panel"
                        }
                    ],
                    "text": "Blood pressure panel"
                },
                "issued": "2012-08-06",
                "status": "final",
                "reliability": "ok",
                "extension": [
                    {
                        "url": "http://amida.com/fhir/Profile/extensions#observation-type",
                        "valueCoding": {
                            "code": "8716-3",
                            "display": "Vital signs",
                            "system": "http://loinc.org"
                        }
                    }
                ],
                "related": [
                    {
                        "type": "has-component",
                        "target": {
                            "reference": "Observation/5554ba26-c1a9-4062-a17b-8873b0c06f4e"
                        }
                    },
                    {
                        "type": "has-component",
                        "target": {
                            "reference": "Observation/0db760aa-ab5c-4e34-8b75-668123245bce"
                        }
                    }
                ]
            }
        },
        {
            "id": "Observation/05a9e2b2-4ebd-47d8-a15c-257e5204a07c",
            "content": {
                "resourceType": "Observation",
                "name": {
                    "coding": [
                        {
                            "system": "http://loinc.org",
                            "code": "55418-8",
                            "display": "Weight and Height tracking panel"
                        }
                    ],
                    "text": "Weight and Height tracking panel"
                },
                "issued": "2012-08-06",
                "status": "final",
                "reliability": "ok",
                "extension": [
                    {
                        "url": "http://amida.com/fhir/Profile/extensions#observation-type",
                        "valueCoding": {
                            "code": "8716-3",
                            "display": "Vital signs",
                            "system": "http://loinc.org"
                        }
                    }
                ],
                "related": [
                    {
                        "type": "has-component",
                        "target": {
                            "reference": "Observation/6f885356-f203-47ac-b88b-e52f80084ca3"
                        }
                    },
                    {
                        "type": "has-component",
                        "target": {
                            "reference": "Observation/c6d6bc32-dd7f-479d-b296-35b40893d5e2"
                        }
                    }
                ]
            }
        },
        {
            "id": "Observation/447b285c-3675-4c49-94d4-150307fbe85f",
            "content": {
                "resourceType": "Observation",
                "name": {
                    "coding": [
                        {
                            "system": "http://loinc.org",
                            "code": "4544-3",
                            "display": "Hct Fr Bld Auto"
                        }
                    ],
                    "text": "Hct Fr Bld Auto"
                },
                "valueQuantity": {
                    "value": 45,
                    "units": "%",
                    "code": "%",
                    "system": "http://unitsofmeasure.org"
                },
                "issued": "2012-08-06",
                "status": "final",
                "reliability": "ok",
                "extension": [
                    {
                        "url": "http://amida.com/fhir/Profile/extensions#observation-type",
                        "valueCoding": {
                            "code": "11502-2",
                            "display": "Laboratory report",
                            "system": "http://loinc.org"
                        }
                    }
                ]
            }
        },
        {
            "id": "Observation/ffa61d79-8e4e-47ce-8c5a-5173bc4fe7da",
            "content": {
                "resourceType": "Observation",
                "name": {
                    "coding": [
                        {
                            "system": "http://loinc.org",
                            "code": "718-7",
                            "display": "Hgb Bld-mCnc"
                        }
                    ],
                    "text": "Hgb Bld-mCnc"
                },
                "valueQuantity": {
                    "value": 14.2,
                    "units": "g/dL",
                    "code": "g/dL",
                    "system": "http://unitsofmeasure.org"
                },
                "issued": "2012-08-06",
                "status": "final",
                "reliability": "ok",
                "extension": [
                    {
                        "url": "http://amida.com/fhir/Profile/extensions#observation-type",
                        "valueCoding": {
                            "code": "11502-2",
                            "display": "Laboratory report",
                            "system": "http://loinc.org"
                        }
                    }
                ]
            }
        },
        {
            "id": "Observation/2f8db7ca-d52b-4f34-9b3e-5b1f010a967a",
            "content": {
                "resourceType": "Observation",
                "name": {
                    "coding": [
                        {
                            "system": "http://loinc.org",
                            "code": "777-3",
                            "display": "Platelet # Bld Auto"
                        }
                    ],
                    "text": "Platelet # Bld Auto"
                },
                "valueQuantity": {
                    "value": 220,
                    "units": "x10E3/uL",
                    "code": "x10E3/uL",
                    "system": "http://unitsofmeasure.org"
                },
                "issued": "2012-08-06",
                "status": "final",
                "reliability": "ok",
                "extension": [
                    {
                        "url": "http://amida.com/fhir/Profile/extensions#observation-type",
                        "valueCoding": {
                            "code": "11502-2",
                            "display": "Laboratory report",
                            "system": "http://loinc.org"
                        }
                    }
                ]
            }
        },
        {
            "id": "Observation/bbc691ac-57ae-4a3e-9599-1562757070ce",
            "content": {
                "resourceType": "Observation",
                "name": {
                    "coding": [
                        {
                            "system": "http://loinc.org",
                            "code": "6690-2",
                            "display": "WBC # Bld Auto"
                        }
                    ],
                    "text": "WBC # Bld Auto"
                },
                "valueQuantity": {
                    "value": 7.6,
                    "units": "x10E3/uL",
                    "code": "x10E3/uL",
                    "system": "http://unitsofmeasure.org"
                },
                "issued": "2012-08-06",
                "status": "final",
                "reliability": "ok",
                "extension": [
                    {
                        "url": "http://amida.com/fhir/Profile/extensions#observation-type",
                        "valueCoding": {
                            "code": "11502-2",
                            "display": "Laboratory report",
                            "system": "http://loinc.org"
                        }
                    }
                ]
            }
        },
        {
            "id": "MedicationPrescription/1d9e3fca-2c61-45a2-a350-bd5f2b057257",
            "content": {
                "resourceType": "MedicationPrescription",
                "status": "active",
                "dosageInstruction": [
                    {
                        "doseQuantity": {
                            "value": 1,
                            "units": "tablet",
                            "code": "tablet",
                            "system": "http://unitsofmeasure.org"
                        }
                    }
                ],
                "text": {
                    "status": "generated",
                    "div": "take 1 tablet (500 mg) by oral route every 12 hours for 14 days"
                },
                "contained": [
                    {
                        "id": "med",
                        "resourceType": "Medication",
                        "name": "clarithromycin Oral Tablet 500 mg",
                        "code": {
                            "coding": [
                                {
                                    "system": "http://www.nlm.nih.gov/research/umls/rxnorm",
                                    "code": "197517",
                                    "display": "Clarithromycin 500 MG Oral Tablet"
                                }
                            ],
                            "text": "Clarithromycin 500 MG Oral Tablet"
                        }
                    }
                ],
                "medication": {
                    "reference": "#med",
                    "display": "clarithromycin Oral Tablet 500 mg"
                }
            }
        },
        {
            "id": "MedicationAdministration/c58e8590-3663-4edc-8a45-d20fb7530afd",
            "content": {
                "resourceType": "MedicationAdministration",
                "status": "completed",
                "practitioner": {
                    "reference": "Practitioner/unknown",
                    "display": "Unknown"
                },
                "dosage": [
                    {
                        "quantity": {
                            "value": 1,
                            "units": "tablet",
                            "code": "tablet",
                            "system": "http://unitsofmeasure.org"
                        }
                    }
                ],
                "prescription": {
                    "reference": "MedicationPrescription/1d9e3fca-2c61-45a2-a350-bd5f2b057257",
                    "display": "take 1 tablet (500 mg) by oral route every 12 hours for 14 days"
                },
                "contained": [
                    {
                        "id": "med",
                        "resourceType": "Medication",
                        "name": "clarithromycin Oral Tablet 500 mg",
                        "code": {
                            "coding": [
                                {
                                    "system": "http://www.nlm.nih.gov/research/umls/rxnorm",
                                    "code": "197517",
                                    "display": "Clarithromycin 500 MG Oral Tablet"
                                }
                            ],
                            "text": "Clarithromycin 500 MG Oral Tablet"
                        }
                    }
                ],
                "medication": {
                    "reference": "#med",
                    "display": "clarithromycin Oral Tablet 500 mg"
                }
            }
        },
        {
            "id": "MedicationPrescription/cad70c1d-fa4f-445a-8427-dd7001c81459",
            "content": {
                "resourceType": "MedicationPrescription",
                "status": "active",
                "dosageInstruction": [
                    {
                        "doseQuantity": {
                            "value": 2,
                            "units": "tablet",
                            "code": "tablet",
                            "system": "http://unitsofmeasure.org"
                        }
                    }
                ],
                "text": {
                    "status": "generated",
                    "div": "take 2 tablets (50 mg) by oral route once daily for 30 days"
                },
                "contained": [
                    {
                        "id": "med",
                        "resourceType": "Medication",
                        "name": "metoprolol tartrate Oral Tablet 25 mg",
                        "code": {
                            "coding": [
                                {
                                    "system": "http://www.nlm.nih.gov/research/umls/rxnorm",
                                    "code": "866924",
                                    "display": "Metoprolol Tartrate 25 MG Oral Tablet"
                                }
                            ],
                            "text": "Metoprolol Tartrate 25 MG Oral Tablet"
                        }
                    }
                ],
                "medication": {
                    "reference": "#med",
                    "display": "metoprolol tartrate Oral Tablet 25 mg"
                }
            }
        },
        {
            "id": "MedicationAdministration/826db3b9-35ee-46ba-8341-9d99e64c9e79",
            "content": {
                "resourceType": "MedicationAdministration",
                "status": "completed",
                "practitioner": {
                    "reference": "Practitioner/unknown",
                    "display": "Unknown"
                },
                "dosage": [
                    {
                        "quantity": {
                            "value": 2,
                            "units": "tablet",
                            "code": "tablet",
                            "system": "http://unitsofmeasure.org"
                        }
                    }
                ],
                "prescription": {
                    "reference": "MedicationPrescription/cad70c1d-fa4f-445a-8427-dd7001c81459",
                    "display": "take 2 tablets (50 mg) by oral route once daily for 30 days"
                },
                "contained": [
                    {
                        "id": "med",
                        "resourceType": "Medication",
                        "name": "metoprolol tartrate Oral Tablet 25 mg",
                        "code": {
                            "coding": [
                                {
                                    "system": "http://www.nlm.nih.gov/research/umls/rxnorm",
                                    "code": "866924",
                                    "display": "Metoprolol Tartrate 25 MG Oral Tablet"
                                }
                            ],
                            "text": "Metoprolol Tartrate 25 MG Oral Tablet"
                        }
                    }
                ],
                "medication": {
                    "reference": "#med",
                    "display": "metoprolol tartrate Oral Tablet 25 mg"
                }
            }
        },
        {
            "id": "MedicationPrescription/eadb9bc1-16bf-42b2-b997-945bec10b8da",
            "content": {
                "resourceType": "MedicationPrescription",
                "status": "active",
                "dateWritten": "2012-08-06",
                "dosageInstruction": [
                    {
                        "doseQuantity": {
                            "value": 2,
                            "units": "Unit",
                            "code": "Unit",
                            "system": "http://unitsofmeasure.org"
                        },
                        "timingPeriod": {
                            "start": "2012-08-06"
                        }
                    }
                ],
                "text": {
                    "status": "generated",
                    "div": "inhale 2 puffs once"
                },
                "contained": [
                    {
                        "id": "med",
                        "resourceType": "Medication",
                        "name": "Proventil HFA Inhalation HFA Aerosol Inhaler 90 mcg/actuation",
                        "code": {
                            "coding": [
                                {
                                    "system": "http://www.nlm.nih.gov/research/umls/rxnorm",
                                    "code": "745679",
                                    "display": "200 ACTUAT Albuterol 0.09 MG/ACTUAT Metered Dose Inhaler"
                                }
                            ],
                            "text": "200 ACTUAT Albuterol 0.09 MG/ACTUAT Metered Dose Inhaler"
                        }
                    }
                ],
                "medication": {
                    "reference": "#med",
                    "display": "Proventil HFA Inhalation HFA Aerosol Inhaler 90 mcg/actuation"
                }
            }
        }
    ]
}