{
    "resourceType": "Bundle",
    "totalResults": 24,
    "entry": [
        {
            "id": "Patient/some-id-here-1987",
            "content": {
                "resourceType": "Patient",
                "identifier": [
                    {
                        "system": "http://www.midea-tecg.com",
                        "value": "JOE_DOE_IDENTIFIER"
                    }
                ],
                "name": [
                    {
                        "family": [
                            "DOE"
                        ],
                        "given": [
                            "JOE"
                        ]
                    }
                ]
            }
        },
        {
            "id": "AllergyIntolerance/a71dd036-5452-4f31-ae15-f6c84f7eba65",
            "content": {
                "resourceType": "AllergyIntolerance",
                "sensitivityType": "allergy",
                "status": "confirmed",
                "substance": {
                    "reference": "Substance/b21d7560-fda0-40d2-b970-26b4cb4a3e9f",
                    "display": "Ecpirin"
                },
                "subject": {
                    "reference": "Patient/some-id-here-1987",
                    "display": "DOE, JOE"
                }
            }
        },
        {
            "id": "Observation/ad43fc07-2b41-4c7d-b62c-2bc64e77d130",
            "content": {
                "resourceType": "Observation",
                "name": {
                    "coding": [
                        {
                            "system": "http://loinc.org",
                            "code": "8462-4",
                            "display": "BP Diastolic"
                        }
                    ],
                    "text": "BP Diastolic"
                },
                "valueQuantity": {
                    "value": 92,
                    "units": "mm[Hg]",
                    "code": "mm[Hg]",
                    "system": "http://unitsofmeasure.org"
                },
                "issued": "2012-08-06",
                "status": "final",
                "reliability": "ok",
                "extension": [
                    {
                        "url": "http://amida.com/fhir/Profile/extensions#observation-type",
                        "valueCoding": {
                            "code": "8716-3",
                            "display": "Vital signs",
                            "system": "http://loinc.org"
                        }
                    }
                ],
                "subject": {
                    "reference": "Patient/some-id-here-1987",
                    "display": "DOE, JOE"
                }
            }
        },
        {
            "id": "Observation/0852aa6a-fed5-44ac-a99b-1e83b974929e",
            "content": {
                "resourceType": "Observation",
                "name": {
                    "coding": [
                        {
                            "system": "http://loinc.org",
                            "code": "8480-6",
                            "display": "BP Systolic"
                        }
                    ],
                    "text": "BP Systolic"
                },
                "valueQuantity": {
                    "value": 135,
                    "units": "mm[Hg]",
                    "code": "mm[Hg]",
                    "system": "http://unitsofmeasure.org"
                },
                "issued": "2012-08-06",
                "status": "final",
                "reliability": "ok",
                "extension": [
                    {
                        "url": "http://amida.com/fhir/Profile/extensions#observation-type",
                        "valueCoding": {
                            "code": "8716-3",
                            "display": "Vital signs",
                            "system": "http://loinc.org"
                        }
                    }
                ],
                "subject": {
                    "reference": "Patient/some-id-here-1987",
                    "display": "DOE, JOE"
                }
            }
        },
        {
            "id": "Observation/4d6b068e-7739-4687-bc1a-36d62087f730",
            "content": {
                "resourceType": "Observation",
                "name": {
                    "coding": [
                        {
                            "system": "http://loinc.org",
                            "code": "41909-3",
                            "display": "Body Mass Index"
                        }
                    ],
                    "text": "Body Mass Index"
                },
                "valueQuantity": {
                    "value": 28.089,
                    "units": "kg/m²",
                    "code": "kg/m²",
                    "system": "http://unitsofmeasure.org"
                },
                "issued": "2012-08-06",
                "status": "final",
                "reliability": "ok",
                "extension": [
                    {
                        "url": "http://amida.com/fhir/Profile/extensions#observation-type",
                        "valueCoding": {
                            "code": "8716-3",
                            "display": "Vital signs",
                            "system": "http://loinc.org"
                        }
                    }
                ],
                "subject": {
                    "reference": "Patient/some-id-here-1987",
                    "display": "DOE, JOE"
                }
            }
        },
        {
            "id": "Observation/4eeba281-c15f-40f3-97ae-8bd6d85d82de",
            "content": {
                "resourceType": "Observation",
                "name": {
                    "coding": [
                        {
                            "system": "http://loinc.org",
                            "code": "8302-2",
                            "display": "Body Height (Measured)"
                        }
                    ],
                    "text": "Body Height (Measured)"
                },
                "valueQuantity": {
                    "value": 69.685,
                    "units": "[in_us]",
                    "code": "[in_us]",
                    "system": "http://unitsofmeasure.org"
                },
                "issued": "2012-08-06",
                "status": "final",
                "reliability": "ok",
                "extension": [
                    {
                        "url": "http://amida.com/fhir/Profile/extensions#observation-type",
                        "valueCoding": {
                            "code": "8716-3",
                            "display": "Vital signs",
                            "system": "http://loinc.org"
                        }
                    }
                ],
                "subject": {
                    "reference": "Patient/some-id-here-1987",
                    "display": "DOE, JOE"
                }
            }
        },
        {
            "id": "Observation/10c87171-90dd-4535-912c-016480665600",
            "content": {
                "resourceType": "Observation",
                "name": {
                    "coding": [
                        {
                            "system": "http://loinc.org",
                            "code": "3141-9",
                            "display": "Body Weight (Measured)"
                        }
                    ],
                    "text": "Body Weight (Measured)"
                },
                "valueQuantity": {
                    "value": 194.007,
                    "units": "[lb_av]",
                    "code": "[lb_av]",
                    "system": "http://unitsofmeasure.org"
                },
                "issued": "2012-08-06",
                "status": "final",
                "reliability": "ok",
                "extension": [
                    {
                        "url": "http://amida.com/fhir/Profile/extensions#observation-type",
                        "valueCoding": {
                            "code": "8716-3",
                            "display": "Vital signs",
                            "system": "http://loinc.org"
                        }
                    }
                ],
                "subject": {
                    "reference": "Patient/some-id-here-1987",
                    "display": "DOE, JOE"
                }
            }
        },
        {
            "id": "Observation/8e5485af-9870-406b-b0f9-a81e0de757fa",
            "content": {
                "resourceType": "Observation",
                "name": {
                    "coding": [
                        {
                            "system": "http://loinc.org",
                            "code": "35094-2",
                            "display": "Blood pressure panel"
                        }
                    ],
                    "text": "Blood pressure panel"
                },
                "issued": "2012-08-06",
                "status": "final",
                "reliability": "ok",
                "extension": [
                    {
                        "url": "http://amida.com/fhir/Profile/extensions#observation-type",
                        "valueCoding": {
                            "code": "8716-3",
                            "display": "Vital signs",
                            "system": "http://loinc.org"
                        }
                    }
                ],
                "related": [
                    {
                        "type": "has-component",
                        "target": {
                            "reference": "Observation/ad43fc07-2b41-4c7d-b62c-2bc64e77d130"
                        }
                    },
                    {
                        "type": "has-component",
                        "target": {
                            "reference": "Observation/0852aa6a-fed5-44ac-a99b-1e83b974929e"
                        }
                    }
                ],
                "subject": {
                    "reference": "Patient/some-id-here-1987",
                    "display": "DOE, JOE"
                }
            }
        },
        {
            "id": "Observation/f881b2d7-fa94-45ff-a67b-6bd20507ffe2",
            "content": {
                "resourceType": "Observation",
                "name": {
                    "coding": [
                        {
                            "system": "http://loinc.org",
                            "code": "55418-8",
                            "display": "Weight and Height tracking panel"
                        }
                    ],
                    "text": "Weight and Height tracking panel"
                },
                "issued": "2012-08-06",
                "status": "final",
                "reliability": "ok",
                "extension": [
                    {
                        "url": "http://amida.com/fhir/Profile/extensions#observation-type",
                        "valueCoding": {
                            "code": "8716-3",
                            "display": "Vital signs",
                            "system": "http://loinc.org"
                        }
                    }
                ],
                "related": [
                    {
                        "type": "has-component",
                        "target": {
                            "reference": "Observation/4eeba281-c15f-40f3-97ae-8bd6d85d82de"
                        }
                    },
                    {
                        "type": "has-component",
                        "target": {
                            "reference": "Observation/10c87171-90dd-4535-912c-016480665600"
                        }
                    }
                ],
                "subject": {
                    "reference": "Patient/some-id-here-1987",
                    "display": "DOE, JOE"
                }
            }
        },
        {
            "id": "Observation/f59d2640-7af5-4d71-8ac4-48f15f0a4da0",
            "content": {
                "resourceType": "Observation",
                "name": {
                    "coding": [
                        {
                            "system": "http://loinc.org",
                            "code": "4544-3",
                            "display": "Hct Fr Bld Auto"
                        }
                    ],
                    "text": "Hct Fr Bld Auto"
                },
                "valueQuantity": {
                    "value": 45,
                    "units": "%",
                    "code": "%",
                    "system": "http://unitsofmeasure.org"
                },
                "issued": "2012-08-06",
                "status": "final",
                "reliability": "ok",
                "extension": [
                    {
                        "url": "http://amida.com/fhir/Profile/extensions#observation-type",
                        "valueCoding": {
                            "code": "11502-2",
                            "display": "Laboratory report",
                            "system": "http://loinc.org"
                        }
                    }
                ],
                "subject": {
                    "reference": "Patient/some-id-here-1987",
                    "display": "DOE, JOE"
                }
            }
        },
        {
            "id": "Observation/483a1e27-e47c-4b08-98e2-32ff00bf1cf6",
            "content": {
                "resourceType": "Observation",
                "name": {
                    "coding": [
                        {
                            "system": "http://loinc.org",
                            "code": "718-7",
                            "display": "Hgb Bld-mCnc"
                        }
                    ],
                    "text": "Hgb Bld-mCnc"
                },
                "valueQuantity": {
                    "value": 14.2,
                    "units": "g/dL",
                    "code": "g/dL",
                    "system": "http://unitsofmeasure.org"
                },
                "issued": "2012-08-06",
                "status": "final",
                "reliability": "ok",
                "extension": [
                    {
                        "url": "http://amida.com/fhir/Profile/extensions#observation-type",
                        "valueCoding": {
                            "code": "11502-2",
                            "display": "Laboratory report",
                            "system": "http://loinc.org"
                        }
                    }
                ],
                "subject": {
                    "reference": "Patient/some-id-here-1987",
                    "display": "DOE, JOE"
                }
            }
        },
        {
            "id": "Observation/650d7623-80b0-432c-9dd8-8ecc9b0d31b3",
            "content": {
                "resourceType": "Observation",
                "name": {
                    "coding": [
                        {
                            "system": "http://loinc.org",
                            "code": "777-3",
                            "display": "Platelet # Bld Auto"
                        }
                    ],
                    "text": "Platelet # Bld Auto"
                },
                "valueQuantity": {
                    "value": 220,
                    "units": "x10E3/uL",
                    "code": "x10E3/uL",
                    "system": "http://unitsofmeasure.org"
                },
                "issued": "2012-08-06",
                "status": "final",
                "reliability": "ok",
                "extension": [
                    {
                        "url": "http://amida.com/fhir/Profile/extensions#observation-type",
                        "valueCoding": {
                            "code": "11502-2",
                            "display": "Laboratory report",
                            "system": "http://loinc.org"
                        }
                    }
                ],
                "subject": {
                    "reference": "Patient/some-id-here-1987",
                    "display": "DOE, JOE"
                }
            }
        },
        {
            "id": "Observation/c0cd485d-aec7-40a2-9496-9b2fe310373a",
            "content": {
                "resourceType": "Observation",
                "name": {
                    "coding": [
                        {
                            "system": "http://loinc.org",
                            "code": "6690-2",
                            "display": "WBC # Bld Auto"
                        }
                    ],
                    "text": "WBC # Bld Auto"
                },
                "valueQuantity": {
                    "value": 7.6,
                    "units": "x10E3/uL",
                    "code": "x10E3/uL",
                    "system": "http://unitsofmeasure.org"
                },
                "issued": "2012-08-06",
                "status": "final",
                "reliability": "ok",
                "extension": [
                    {
                        "url": "http://amida.com/fhir/Profile/extensions#observation-type",
                        "valueCoding": {
                            "code": "11502-2",
                            "display": "Laboratory report",
                            "system": "http://loinc.org"
                        }
                    }
                ],
                "subject": {
                    "reference": "Patient/some-id-here-1987",
                    "display": "DOE, JOE"
                }
            }
        },
        {
            "id": "MedicationPrescription/fc508fab-047e-403d-b8f9-ecb328a32667",
            "content": {
                "resourceType": "MedicationPrescription",
                "status": "active",
                "dosageInstruction": [
                    {
                        "doseQuantity": {
                            "value": 1,
                            "units": "tablet",
                            "code": "tablet",
                            "system": "http://unitsofmeasure.org"
                        }
                    }
                ],
                "text": {
                    "status": "generated",
                    "div": "take 1 tablet (500 mg) by oral route every 12 hours for 14 days"
                },
                "medication": {
                    "reference": "Medication/0ee5e540-ef3c-4bbe-8827-f3bec148aed3",
                    "display": "Clarithromycin 500 MG Oral Tablet"
                },
                "patient": {
                    "reference": "Patient/some-id-here-1987",
                    "display": "DOE, JOE"
                }
            }
        },
        {
            "id": "MedicationAdministration/274cd30f-7b8a-409d-8e83-a2ed01a59f58",
            "content": {
                "resourceType": "MedicationAdministration",
                "status": "completed",
                "practitioner": {
                    "reference": "Practitioner/unknown",
                    "display": "Unknown"
                },
                "dosage": [
                    {
                        "quantity": {
                            "value": 1,
                            "units": "tablet",
                            "code": "tablet",
                            "system": "http://unitsofmeasure.org"
                        }
                    }
                ],
                "prescription": {
                    "reference": "MedicationPrescription/fc508fab-047e-403d-b8f9-ecb328a32667",
                    "display": "take 1 tablet (500 mg) by oral route every 12 hours for 14 days"
                },
                "medication": {
                    "reference": "Medication/7ca980e0-0151-4eb2-9060-56f6e77ea396",
                    "display": "Clarithromycin 500 MG Oral Tablet"
                },
                "patient": {
                    "reference": "Patient/some-id-here-1987",
                    "display": "DOE, JOE"
                }
            }
        },
        {
            "id": "MedicationPrescription/39b90d0c-1d55-4a1c-bbc5-dd1691836ea3",
            "content": {
                "resourceType": "MedicationPrescription",
                "status": "active",
                "dosageInstruction": [
                    {
                        "doseQuantity": {
                            "value": 2,
                            "units": "tablet",
                            "code": "tablet",
                            "system": "http://unitsofmeasure.org"
                        }
                    }
                ],
                "text": {
                    "status": "generated",
                    "div": "take 2 tablets (50 mg) by oral route once daily for 30 days"
                },
                "medication": {
                    "reference": "Medication/75d77825-c7be-47f2-a969-59616fdd11bf",
                    "display": "Metoprolol Tartrate 25 MG Oral Tablet"
                },
                "patient": {
                    "reference": "Patient/some-id-here-1987",
                    "display": "DOE, JOE"
                }
            }
        },
        {
            "id": "MedicationAdministration/e38b89e7-8ce0-4ba4-afcc-5034fd7fc47d",
            "content": {
                "resourceType": "MedicationAdministration",
                "status": "completed",
                "practitioner": {
                    "reference": "Practitioner/unknown",
                    "display": "Unknown"
                },
                "dosage": [
                    {
                        "quantity": {
                            "value": 2,
                            "units": "tablet",
                            "code": "tablet",
                            "system": "http://unitsofmeasure.org"
                        }
                    }
                ],
                "prescription": {
                    "reference": "MedicationPrescription/39b90d0c-1d55-4a1c-bbc5-dd1691836ea3",
                    "display": "take 2 tablets (50 mg) by oral route once daily for 30 days"
                },
                "medication": {
                    "reference": "Medication/f321bea5-9499-45a5-8f19-ca4ec94d90f8",
                    "display": "Metoprolol Tartrate 25 MG Oral Tablet"
                },
                "patient": {
                    "reference": "Patient/some-id-here-1987",
                    "display": "DOE, JOE"
                }
            }
        },
        {
            "id": "MedicationPrescription/933840f8-4633-4044-a0c7-76b7a6a12b30",
            "content": {
                "resourceType": "MedicationPrescription",
                "status": "active",
                "dateWritten": "2012-08-06",
                "dosageInstruction": [
                    {
                        "doseQuantity": {
                            "value": 2,
                            "units": "Unit",
                            "code": "Unit",
                            "system": "http://unitsofmeasure.org"
                        },
                        "timingPeriod": {
                            "start": "2012-08-06"
                        }
                    }
                ],
                "text": {
                    "status": "generated",
                    "div": "inhale 2 puffs once"
                },
                "medication": {
                    "reference": "Medication/c80db77a-03b7-4a16-b510-d16714416f2b",
                    "display": "200 ACTUAT Albuterol 0.09 MG/ACTUAT Metered Dose Inhaler"
                },
                "patient": {
                    "reference": "Patient/some-id-here-1987",
                    "display": "DOE, JOE"
                }
            }
        },
        {
            "id": "Substance/b21d7560-fda0-40d2-b970-26b4cb4a3e9f",
            "content": {
                "resourceType": "Substance",
                "type": {
                    "coding": [
                        {
                            "system": "http://www.nlm.nih.gov/research/umls/rxnorm",
                            "code": "1001473",
                            "display": "Ecpirin"
                        }
                    ],
                    "text": "Ecpirin"
                }
            }
        },
        {
            "id": "Medication/0ee5e540-ef3c-4bbe-8827-f3bec148aed3",
            "content": {
                "resourceType": "Medication",
                "name": "Clarithromycin 500 MG Oral Tablet",
                "code": {
                    "coding": [
                        {
                            "system": "http://www.nlm.nih.gov/research/umls/rxnorm",
                            "code": "197517",
                            "display": "Clarithromycin 500 MG Oral Tablet"
                        }
                    ],
                    "text": "Clarithromycin 500 MG Oral Tablet"
                }
            }
        },
        {
            "id": "Medication/7ca980e0-0151-4eb2-9060-56f6e77ea396",
            "content": {
                "resourceType": "Medication",
                "name": "Clarithromycin 500 MG Oral Tablet",
                "code": {
                    "coding": [
                        {
                            "system": "http://www.nlm.nih.gov/research/umls/rxnorm",
                            "code": "197517",
                            "display": "Clarithromycin 500 MG Oral Tablet"
                        }
                    ],
                    "text": "Clarithromycin 500 MG Oral Tablet"
                }
            }
        },
        {
            "id": "Medication/75d77825-c7be-47f2-a969-59616fdd11bf",
            "content": {
                "resourceType": "Medication",
                "name": "Metoprolol Tartrate 25 MG Oral Tablet",
                "code": {
                    "coding": [
                        {
                            "system": "http://www.nlm.nih.gov/research/umls/rxnorm",
                            "code": "866924",
                            "display": "Metoprolol Tartrate 25 MG Oral Tablet"
                        }
                    ],
                    "text": "Metoprolol Tartrate 25 MG Oral Tablet"
                }
            }
        },
        {
            "id": "Medication/f321bea5-9499-45a5-8f19-ca4ec94d90f8",
            "content": {
                "resourceType": "Medication",
                "name": "Metoprolol Tartrate 25 MG Oral Tablet",
                "code": {
                    "coding": [
                        {
                            "system": "http://www.nlm.nih.gov/research/umls/rxnorm",
                            "code": "866924",
                            "display": "Metoprolol Tartrate 25 MG Oral Tablet"
                        }
                    ],
                    "text": "Metoprolol Tartrate 25 MG Oral Tablet"
                }
            }
        },
        {
            "id": "Medication/c80db77a-03b7-4a16-b510-d16714416f2b",
            "content": {
                "resourceType": "Medication",
                "name": "200 ACTUAT Albuterol 0.09 MG/ACTUAT Metered Dose Inhaler",
                "code": {
                    "coding": [
                        {
                            "system": "http://www.nlm.nih.gov/research/umls/rxnorm",
                            "code": "745679",
                            "display": "200 ACTUAT Albuterol 0.09 MG/ACTUAT Metered Dose Inhaler"
                        }
                    ],
                    "text": "200 ACTUAT Albuterol 0.09 MG/ACTUAT Metered Dose Inhaler"
                }
            }
        }
    ]
}