{
    "resourceType": "Bundle",
    "totalResults": 14,
    "entry": [
        {
            "id": "Observation/6afe7396-1585-4fa0-a175-e35067dd45d5",
            "content": {
                "resourceType": "Observation",
                "name": {
                    "coding": [
                        {
                            "system": "http://loinc.org",
                            "code": "8480-6",
                            "display": "BP Systolic"
                        }
                    ],
                    "text": "BP Systolic"
                },
                "valueQuantity": {
                    "value": 150,
                    "units": "mm[Hg]",
                    "code": "mm[Hg]",
                    "system": "http://unitsofmeasure.org"
                },
                "issued": "2013-07-11",
                "status": "final",
                "reliability": "ok",
                "extension": [
                    {
                        "url": "http://amida.com/fhir/Profile/extensions#observation-type",
                        "valueCoding": {
                            "code": "8716-3",
                            "display": "Vital signs",
                            "system": "http://loinc.org"
                        }
                    }
                ]
            }
        },
        {
            "id": "Observation/a338b260-6367-48bb-a8db-d6cd3a927e3d",
            "content": {
                "resourceType": "Observation",
                "name": {
                    "coding": [
                        {
                            "system": "http://loinc.org",
                            "code": "8462-4",
                            "display": "BP Diastolic"
                        }
                    ],
                    "text": "BP Diastolic"
                },
                "valueQuantity": {
                    "value": 95,
                    "units": "mm[Hg]",
                    "code": "mm[Hg]",
                    "system": "http://unitsofmeasure.org"
                },
                "issued": "2013-07-11",
                "status": "final",
                "reliability": "ok",
                "extension": [
                    {
                        "url": "http://amida.com/fhir/Profile/extensions#observation-type",
                        "valueCoding": {
                            "code": "8716-3",
                            "display": "Vital signs",
                            "system": "http://loinc.org"
                        }
                    }
                ]
            }
        },
        {
            "id": "Observation/9aab0f06-6854-4902-9b5b-41bcd6330818",
            "content": {
                "resourceType": "Observation",
                "name": {
                    "coding": [
                        {
                            "system": "http://loinc.org",
                            "code": "8302-2",
                            "display": "Height"
                        }
                    ],
                    "text": "Height"
                },
                "valueQuantity": {
                    "value": 70,
                    "units": "[in_us]",
                    "code": "[in_us]",
                    "system": "http://unitsofmeasure.org"
                },
                "issued": "2013-07-11",
                "status": "final",
                "reliability": "ok",
                "extension": [
                    {
                        "url": "http://amida.com/fhir/Profile/extensions#observation-type",
                        "valueCoding": {
                            "code": "8716-3",
                            "display": "Vital signs",
                            "system": "http://loinc.org"
                        }
                    }
                ]
            }
        },
        {
            "id": "Observation/602ac937-7d61-4b86-a02c-a8f593726918",
            "content": {
                "resourceType": "Observation",
                "name": {
                    "coding": [
                        {
                            "system": "http://loinc.org",
                            "code": "3141-9",
                            "display": "Weight"
                        }
                    ],
                    "text": "Weight"
                },
                "valueQuantity": {
                    "value": 195,
                    "units": "[lb_av]",
                    "code": "[lb_av]",
                    "system": "http://unitsofmeasure.org"
                },
                "issued": "2013-07-11",
                "status": "final",
                "reliability": "ok",
                "extension": [
                    {
                        "url": "http://amida.com/fhir/Profile/extensions#observation-type",
                        "valueCoding": {
                            "code": "8716-3",
                            "display": "Vital signs",
                            "system": "http://loinc.org"
                        }
                    }
                ]
            }
        },
        {
            "id": "Observation/4263e029-e22e-42f2-8a76-57036697704f",
            "content": {
                "resourceType": "Observation",
                "name": {
                    "coding": [
                        {
                            "system": "http://loinc.org",
                            "code": "39156-5",
                            "display": "Body Mass Index Calculated"
                        }
                    ],
                    "text": "Body Mass Index Calculated"
                },
                "valueQuantity": {
                    "value": 27.98,
                    "units": "kg/m2",
                    "code": "kg/m2",
                    "system": "http://unitsofmeasure.org"
                },
                "issued": "2013-07-11",
                "status": "final",
                "reliability": "ok",
                "extension": [
                    {
                        "url": "http://amida.com/fhir/Profile/extensions#observation-type",
                        "valueCoding": {
                            "code": "8716-3",
                            "display": "Vital signs",
                            "system": "http://loinc.org"
                        }
                    }
                ]
            }
        },
        {
            "id": "Observation/bc4fe922-9afb-4667-8a1b-6db5eda0848a",
            "content": {
                "resourceType": "Observation",
                "name": {
                    "coding": [
                        {
                            "system": "http://loinc.org",
                            "code": "3140-1",
                            "display": "Body Surface Area Calculated"
                        }
                    ],
                    "text": "Body Surface Area Calculated"
                },
                "valueQuantity": {
                    "value": 2.06
                },
                "issued": "2013-07-11",
                "status": "final",
                "reliability": "ok",
                "extension": [
                    {
                        "url": "http://amida.com/fhir/Profile/extensions#observation-type",
                        "valueCoding": {
                            "code": "8716-3",
                            "display": "Vital signs",
                            "system": "http://loinc.org"
                        }
                    }
                ]
            }
        },
        {
            "id": "Observation/f0a44abc-7061-4a85-868b-9ab92d6b84d8",
            "content": {
                "resourceType": "Observation",
                "name": {
                    "coding": [
                        {
                            "system": "http://loinc.org",
                            "code": "35094-2",
                            "display": "Blood pressure panel"
                        }
                    ],
                    "text": "Blood pressure panel"
                },
                "issued": "2013-07-11",
                "status": "final",
                "reliability": "ok",
                "extension": [
                    {
                        "url": "http://amida.com/fhir/Profile/extensions#observation-type",
                        "valueCoding": {
                            "code": "8716-3",
                            "display": "Vital signs",
                            "system": "http://loinc.org"
                        }
                    }
                ],
                "related": [
                    {
                        "type": "has-component",
                        "target": {
                            "reference": "Observation/6afe7396-1585-4fa0-a175-e35067dd45d5"
                        }
                    },
                    {
                        "type": "has-component",
                        "target": {
                            "reference": "Observation/a338b260-6367-48bb-a8db-d6cd3a927e3d"
                        }
                    }
                ]
            }
        },
        {
            "id": "Observation/324692f2-6bc8-4845-b013-89e32420e653",
            "content": {
                "resourceType": "Observation",
                "name": {
                    "coding": [
                        {
                            "system": "http://loinc.org",
                            "code": "55418-8",
                            "display": "Weight and Height tracking panel"
                        }
                    ],
                    "text": "Weight and Height tracking panel"
                },
                "issued": "2013-07-11",
                "status": "final",
                "reliability": "ok",
                "extension": [
                    {
                        "url": "http://amida.com/fhir/Profile/extensions#observation-type",
                        "valueCoding": {
                            "code": "8716-3",
                            "display": "Vital signs",
                            "system": "http://loinc.org"
                        }
                    }
                ],
                "related": [
                    {
                        "type": "has-component",
                        "target": {
                            "reference": "Observation/9aab0f06-6854-4902-9b5b-41bcd6330818"
                        }
                    },
                    {
                        "type": "has-component",
                        "target": {
                            "reference": "Observation/602ac937-7d61-4b86-a02c-a8f593726918"
                        }
                    },
                    {
                        "type": "has-component",
                        "target": {
                            "reference": "Observation/4263e029-e22e-42f2-8a76-57036697704f"
                        }
                    }
                ]
            }
        },
        {
            "id": "Condition/4b8bee3b-c3ba-49ac-a83c-c65a5c2e05e6",
            "content": {
                "resourceType": "Condition",
                "status": "confirmed",
                "onsetDate": "2011-09-25",
                "dateAsserted": "2011-09-25",
                "code": {
                    "coding": [
                        {
                            "system": "http://snomed.info/sct",
                            "code": "195967001",
                            "display": "Asthma"
                        }
                    ],
                    "text": "Asthma"
                }
            }
        },
        {
            "id": "Condition/97538c9d-203b-45b0-a113-39207210c4b8",
            "content": {
                "resourceType": "Condition",
                "status": "confirmed",
                "onsetDate": "2013-07-11",
                "dateAsserted": "2013-07-11",
                "code": {
                    "coding": [
                        {
                            "system": "http://snomed.info/sct",
                            "code": "64109004",
                            "display": "Costal chondritis"
                        }
                    ],
                    "text": "Costal chondritis"
                }
            }
        },
        {
            "id": "Condition/4acb5c7a-5bca-4d9f-b1b5-d2a4bf0745cf",
            "content": {
                "resourceType": "Condition",
                "status": "confirmed",
                "onsetDate": "2013-07-11",
                "dateAsserted": "2013-07-11",
                "code": {
                    "coding": [
                        {
                            "system": "http://snomed.info/sct",
                            "code": "66557003",
                            "display": "No impairment"
                        }
                    ],
                    "text": "No impairment"
                }
            }
        },
        {
            "id": "Observation/eec853fe-fe92-4da8-861b-97b3fba082fb",
            "content": {
                "resourceType": "Observation",
                "name": {
                    "coding": [
                        {
                            "system": "http://loinc.org",
                            "code": "2028-9",
                            "display": "Carbon Dioxide"
                        }
                    ],
                    "text": "Carbon Dioxide"
                },
                "valueQuantity": {
                    "value": 25.2,
                    "units": "mmol/L",
                    "code": "mmol/L",
                    "system": "http://unitsofmeasure.org"
                },
                "issued": "2013-07-11",
                "status": "preliminary",
                "reliability": "ok",
                "extension": [
                    {
                        "url": "http://amida.com/fhir/Profile/extensions#observation-type",
                        "valueCoding": {
                            "code": "11502-2",
                            "display": "Laboratory report",
                            "system": "http://loinc.org"
                        }
                    }
                ]
            }
        },
        {
            "id": "Observation/0bbeb1c2-4af2-494f-8eab-438e9cd9fc71",
            "content": {
                "resourceType": "Observation",
                "name": {
                    "coding": [
                        {
                            "system": "urn:oid:2.16.840.1.113883.6.12",
                            "code": "UNK",
                            "display": "CO2"
                        }
                    ],
                    "text": "CO2"
                },
                "status": "final",
                "reliability": "ok",
                "related": [
                    {
                        "type": "has-component",
                        "target": {
                            "reference": "Observation/eec853fe-fe92-4da8-861b-97b3fba082fb"
                        }
                    }
                ],
                "extension": [
                    {
                        "url": "http://amida.com/fhir/Profile/extensions#observation-type",
                        "valueCoding": {
                            "code": "11502-2",
                            "display": "Laboratory report",
                            "system": "http://loinc.org"
                        }
                    }
                ]
            }
        },
        {
            "id": "MedicationPrescription/b3d01e09-8468-4cb7-8fa7-ae70b6c826ff",
            "content": {
                "resourceType": "MedicationPrescription",
                "status": "active",
                "dosageInstruction": [
                    {
                        "route": {
                            "coding": [
                                {
                                    "system": "urn:oid:2.16.840.1.113883.3.26.1.1",
                                    "code": "C38216",
                                    "display": "RESPIRATORY (INHALATION)"
                                }
                            ],
                            "text": "RESPIRATORY (INHALATION)"
                        }
                    }
                ],
                "contained": [
                    {
                        "id": "med",
                        "resourceType": "Medication",
                        "name": "Proventil HFA 108 (90 Base) MCG/ACT Inhalation Aerosol Solution",
                        "code": {
                            "coding": [
                                {
                                    "system": "http://www.nlm.nih.gov/research/umls/rxnorm",
                                    "code": "746763",
                                    "display": "Proventil HFA 108 (90 Base) MCG/ACT Inhalation Aerosol Solution"
                                }
                            ],
                            "text": "Proventil HFA 108 (90 Base) MCG/ACT Inhalation Aerosol Solution"
                        }
                    }
                ],
                "medication": {
                    "reference": "#med",
                    "display": "Proventil HFA 108 (90 Base) MCG/ACT Inhalation Aerosol Solution"
                }
            }
        }
    ]
}