{
    "resourceType": "Bundle",
    "total": 17,
    "entry": [
        {
            "resource": {
                "id": "Patient/0",
                "resourceType": "Patient",
                "identifier": [
                    {
                        "system": "urn:oid:1.3.6.1.4.1.22812.3.9999341.3",
                        "value": "130115235147857"
                    }
                ],
                "name": [
                    {
                        "family": [
                            "Everyman"
                        ],
                        "given": [
                            "Adam"
                        ]
                    }
                ],
                "gender": "male",
                "birthDate": "1962-10-22",
                "address": [
                    {
                        "use": "home",
                        "line": [
                            "99 Forest Park"
                        ],
                        "city": "Chicago",
                        "state": "IL",
                        "postalCode": "60301",
                        "country": "US"
                    }
                ],
                "communication": [
                    {
                        "language": {
                            "coding": [
                                {
                                    "code": "eng",
                                    "system": "urn:ietf:params:language"
                                }
                            ]
                        },
                        "preferred": true
                    }
                ],
                "extension": [
                    {
                        "url": "http://hl7.org/fhir/StructureDefinition/us-core-race",
                        "valueCodeableConcept": {
                            "coding": [
                                {
                                    "system": "urn:oid:2.16.840.1.113883.6.238",
                                    "code": "2106-3",
                                    "display": "White"
                                }
                            ]
                        }
                    },
                    {
                        "url": "http://hl7.org/fhir/StructureDefinition/us-core-ethnicity",
                        "valueCodeableConcept": {
                            "coding": [
                                {
                                    "system": "urn:oid:2.16.840.1.113883.6.238",
                                    "code": "2186-5",
                                    "display": "Not Hispanic or Latino"
                                }
                            ]
                        }
                    }
                ]
            }
        },
        {
            "resource": {
                "id": "AllergyIntolerance/1",
                "resourceType": "AllergyIntolerance",
                "status": "confirmed",
                "substance": {
                    "text": "Codeine"
                },
                "patient": {
                    "reference": "Patient/0",
                    "display": "Everyman, Adam"
                }
            }
        },
        {
            "resource": {
                "id": "AllergyIntolerance/2",
                "resourceType": "AllergyIntolerance",
                "status": "confirmed",
                "substance": {
                    "text": "Penicillin G Potassium SOLR"
                },
                "patient": {
                    "reference": "Patient/0",
                    "display": "Everyman, Adam"
                }
            }
        },
        {
            "resource": {
                "id": "Observation/3",
                "resourceType": "Observation",
                "code": {
                    "coding": [
                        {
                            "system": "http://loinc.org",
                            "code": "8480-6",
                            "display": "BP Systolic"
                        }
                    ],
                    "text": "BP Systolic"
                },
                "valueQuantity": {
                    "value": 150,
                    "units": "mm[Hg]"
                },
                "issued": "2013-07-11",
                "status": "final",
                "reliability": "ok",
                "subject": {
                    "reference": "Patient/0",
                    "display": "Everyman, Adam"
                }
            }
        },
        {
            "resource": {
                "id": "Observation/4",
                "resourceType": "Observation",
                "code": {
                    "coding": [
                        {
                            "system": "http://loinc.org",
                            "code": "8462-4",
                            "display": "BP Diastolic"
                        }
                    ],
                    "text": "BP Diastolic"
                },
                "valueQuantity": {
                    "value": 95,
                    "units": "mm[Hg]"
                },
                "issued": "2013-07-11",
                "status": "final",
                "reliability": "ok",
                "subject": {
                    "reference": "Patient/0",
                    "display": "Everyman, Adam"
                }
            }
        },
        {
            "resource": {
                "id": "Observation/5",
                "resourceType": "Observation",
                "code": {
                    "coding": [
                        {
                            "system": "http://loinc.org",
                            "code": "8302-2",
                            "display": "Height"
                        }
                    ],
                    "text": "Height"
                },
                "valueQuantity": {
                    "value": 70,
                    "units": "[in_us]"
                },
                "issued": "2013-07-11",
                "status": "final",
                "reliability": "ok",
                "subject": {
                    "reference": "Patient/0",
                    "display": "Everyman, Adam"
                }
            }
        },
        {
            "resource": {
                "id": "Observation/6",
                "resourceType": "Observation",
                "code": {
                    "coding": [
                        {
                            "system": "http://loinc.org",
                            "code": "3141-9",
                            "display": "Weight"
                        }
                    ],
                    "text": "Weight"
                },
                "valueQuantity": {
                    "value": 195,
                    "units": "[lb_av]"
                },
                "issued": "2013-07-11",
                "status": "final",
                "reliability": "ok",
                "subject": {
                    "reference": "Patient/0",
                    "display": "Everyman, Adam"
                }
            }
        },
        {
            "resource": {
                "id": "Observation/7",
                "resourceType": "Observation",
                "code": {
                    "coding": [
                        {
                            "system": "http://loinc.org",
                            "code": "39156-5",
                            "display": "Body Mass Index Calculated"
                        }
                    ],
                    "text": "Body Mass Index Calculated"
                },
                "valueQuantity": {
                    "value": 27.98,
                    "units": "kg/m2"
                },
                "issued": "2013-07-11",
                "status": "final",
                "reliability": "ok",
                "subject": {
                    "reference": "Patient/0",
                    "display": "Everyman, Adam"
                }
            }
        },
        {
            "resource": {
                "id": "Observation/8",
                "resourceType": "Observation",
                "code": {
                    "coding": [
                        {
                            "system": "http://loinc.org",
                            "code": "3140-1",
                            "display": "Body Surface Area Calculated"
                        }
                    ],
                    "text": "Body Surface Area Calculated"
                },
                "valueQuantity": {
                    "value": 2.06
                },
                "issued": "2013-07-11",
                "status": "final",
                "reliability": "ok",
                "subject": {
                    "reference": "Patient/0",
                    "display": "Everyman, Adam"
                }
            }
        },
        {
            "resource": {
                "id": "Observation/9",
                "resourceType": "Observation",
                "code": {
                    "coding": [
                        {
                            "system": "http://loinc.org",
                            "code": "35094-2",
                            "display": "Blood pressure panel"
                        }
                    ],
                    "text": "Blood pressure panel"
                },
                "issued": "2013-07-11",
                "status": "final",
                "reliability": "ok",
                "related": [
                    {
                        "type": "has-component",
                        "target": {
                            "reference": "Observation/3"
                        }
                    },
                    {
                        "type": "has-component",
                        "target": {
                            "reference": "Observation/4"
                        }
                    }
                ],
                "subject": {
                    "reference": "Patient/0",
                    "display": "Everyman, Adam"
                }
            }
        },
        {
            "resource": {
                "id": "Observation/10",
                "resourceType": "Observation",
                "code": {
                    "coding": [
                        {
                            "system": "http://loinc.org",
                            "code": "55418-8",
                            "display": "Weight and Height tracking panel"
                        }
                    ],
                    "text": "Weight and Height tracking panel"
                },
                "issued": "2013-07-11",
                "status": "final",
                "reliability": "ok",
                "related": [
                    {
                        "type": "has-component",
                        "target": {
                            "reference": "Observation/5"
                        }
                    },
                    {
                        "type": "has-component",
                        "target": {
                            "reference": "Observation/6"
                        }
                    },
                    {
                        "type": "has-component",
                        "target": {
                            "reference": "Observation/7"
                        }
                    }
                ],
                "subject": {
                    "reference": "Patient/0",
                    "display": "Everyman, Adam"
                }
            }
        },
        {
            "resource": {
                "id": "Condition/11",
                "resourceType": "Condition",
                "clinicalStatus": "confirmed",
                "onsetDateTime": "2011-09-25",
                "dateAsserted": "2011-09-25",
                "code": {
                    "coding": [
                        {
                            "system": "http://snomed.info/sct",
                            "code": "195967001",
                            "display": "Asthma"
                        }
                    ],
                    "text": "Asthma"
                },
                "patient": {
                    "reference": "Patient/0",
                    "display": "Everyman, Adam"
                }
            }
        },
        {
            "resource": {
                "id": "Condition/12",
                "resourceType": "Condition",
                "clinicalStatus": "confirmed",
                "onsetDateTime": "2013-07-11",
                "dateAsserted": "2013-07-11",
                "code": {
                    "coding": [
                        {
                            "system": "http://snomed.info/sct",
                            "code": "64109004",
                            "display": "Costal chondritis"
                        }
                    ],
                    "text": "Costal chondritis"
                },
                "patient": {
                    "reference": "Patient/0",
                    "display": "Everyman, Adam"
                }
            }
        },
        {
            "resource": {
                "id": "Condition/13",
                "resourceType": "Condition",
                "clinicalStatus": "confirmed",
                "onsetDateTime": "2013-07-11",
                "dateAsserted": "2013-07-11",
                "code": {
                    "coding": [
                        {
                            "system": "http://snomed.info/sct",
                            "code": "66557003",
                            "display": "No impairment"
                        }
                    ],
                    "text": "No impairment"
                },
                "patient": {
                    "reference": "Patient/0",
                    "display": "Everyman, Adam"
                }
            }
        },
        {
            "resource": {
                "id": "Observation/14",
                "resourceType": "Observation",
                "code": {
                    "coding": [
                        {
                            "system": "http://loinc.org",
                            "code": "2028-9",
                            "display": "Carbon Dioxide"
                        }
                    ],
                    "text": "Carbon Dioxide"
                },
                "valueQuantity": {
                    "value": 25.2,
                    "units": "mmol/L"
                },
                "issued": "2013-07-11",
                "status": "preliminary",
                "reliability": "ok",
                "subject": {
                    "reference": "Patient/0",
                    "display": "Everyman, Adam"
                }
            }
        },
        {
            "resource": {
                "id": "Observation/15",
                "resourceType": "Observation",
                "code": {
                    "coding": [
                        {
                            "system": "urn:oid:2.16.840.1.113883.6.12",
                            "code": "UNK",
                            "display": "CO2"
                        }
                    ],
                    "text": "CO2"
                },
                "status": "final",
                "reliability": "ok",
                "related": [
                    {
                        "type": "has-component",
                        "target": {
                            "reference": "Observation/14"
                        }
                    }
                ],
                "subject": {
                    "reference": "Patient/0",
                    "display": "Everyman, Adam"
                }
            }
        },
        {
            "resource": {
                "id": "MedicationPrescription/16",
                "resourceType": "MedicationPrescription",
                "status": "active",
                "dosageInstruction": [
                    {
                        "route": {
                            "coding": [
                                {
                                    "system": "urn:oid:2.16.840.1.113883.3.26.1.1",
                                    "code": "C38216",
                                    "display": "RESPIRATORY (INHALATION)"
                                }
                            ],
                            "text": "RESPIRATORY (INHALATION)"
                        }
                    }
                ],
                "contained": [
                    {
                        "id": "med",
                        "resourceType": "Medication",
                        "name": "Proventil HFA 108 (90 Base) MCG/ACT Inhalation Aerosol Solution",
                        "code": {
                            "coding": [
                                {
                                    "system": "http://www.nlm.nih.gov/research/umls/rxnorm",
                                    "code": "746763",
                                    "display": "Proventil HFA 108 (90 Base) MCG/ACT Inhalation Aerosol Solution"
                                }
                            ],
                            "text": "Proventil HFA 108 (90 Base) MCG/ACT Inhalation Aerosol Solution"
                        }
                    }
                ],
                "medication": {
                    "reference": "#med",
                    "display": "Proventil HFA 108 (90 Base) MCG/ACT Inhalation Aerosol Solution"
                },
                "patient": {
                    "reference": "Patient/0",
                    "display": "Everyman, Adam"
                }
            }
        }
    ]
}