{
    "resourceType": "Bundle",
    "totalResults": 18,
    "entry": [
        {
            "id": "AllergyIntolerance/9227feca-ab2e-4d22-84d6-bf29b770c5fd",
            "content": {
                "resourceType": "AllergyIntolerance",
                "sensitivityType": "allergy",
                "status": "confirmed",
                "contained": [
                    {
                        "id": "allergen",
                        "resourceType": "Substance",
                        "type": {
                            "coding": [
                                {
                                    "system": "http://www.nlm.nih.gov/research/umls/rxnorm",
                                    "code": "7982",
                                    "display": "penicillin G benzathine"
                                }
                            ],
                            "text": "penicillin G benzathine"
                        }
                    }
                ],
                "substance": {
                    "reference": "#allergen",
                    "display": "penicillin G benzathine"
                }
            }
        },
        {
            "id": "Observation/6115f839-eec8-4178-ad95-07564d65496b",
            "content": {
                "resourceType": "Observation",
                "name": {
                    "coding": [
                        {
                            "system": "http://loinc.org",
                            "code": "8480-6",
                            "display": "BP Systolic"
                        }
                    ],
                    "text": "BP Systolic"
                },
                "valueQuantity": {
                    "value": 89
                },
                "issued": "2011-03-12",
                "status": "final",
                "reliability": "ok",
                "extension": [
                    {
                        "url": "http://amida.com/fhir/Profile/extensions#observation-type",
                        "valueCoding": {
                            "code": "8716-3",
                            "display": "Vital signs",
                            "system": "http://loinc.org"
                        }
                    }
                ],
                "interpretation": {
                    "coding": [
                        {
                            "system": "http://hl7.org/fhir/v2/0078",
                            "code": "N",
                            "display": "Normal"
                        }
                    ],
                    "text": "Normal"
                }
            }
        },
        {
            "id": "Observation/d8851655-901f-4705-ab61-07a5f1d0776b",
            "content": {
                "resourceType": "Observation",
                "name": {
                    "coding": [
                        {
                            "system": "http://loinc.org",
                            "code": "8462-4",
                            "display": "BP Diastolic"
                        }
                    ],
                    "text": "BP Diastolic"
                },
                "valueQuantity": {
                    "value": 62
                },
                "issued": "2011-03-12",
                "status": "final",
                "reliability": "ok",
                "extension": [
                    {
                        "url": "http://amida.com/fhir/Profile/extensions#observation-type",
                        "valueCoding": {
                            "code": "8716-3",
                            "display": "Vital signs",
                            "system": "http://loinc.org"
                        }
                    }
                ],
                "interpretation": {
                    "coding": [
                        {
                            "system": "http://hl7.org/fhir/v2/0078",
                            "code": "N",
                            "display": "Normal"
                        }
                    ],
                    "text": "Normal"
                }
            }
        },
        {
            "id": "Observation/8afba4c7-b61a-4975-b1fe-c8876a7b2444",
            "content": {
                "resourceType": "Observation",
                "name": {
                    "coding": [
                        {
                            "system": "http://loinc.org",
                            "code": "3141-9",
                            "display": "Weight"
                        }
                    ],
                    "text": "Weight"
                },
                "valueQuantity": {
                    "value": 145,
                    "units": "kg",
                    "code": "kg",
                    "system": "http://unitsofmeasure.org"
                },
                "issued": "2011-03-12",
                "status": "final",
                "reliability": "ok",
                "extension": [
                    {
                        "url": "http://amida.com/fhir/Profile/extensions#observation-type",
                        "valueCoding": {
                            "code": "8716-3",
                            "display": "Vital signs",
                            "system": "http://loinc.org"
                        }
                    }
                ],
                "interpretation": {
                    "coding": [
                        {
                            "system": "http://hl7.org/fhir/v2/0078",
                            "code": "N",
                            "display": "Normal"
                        }
                    ],
                    "text": "Normal"
                }
            }
        },
        {
            "id": "Observation/a4a08cb7-7ab8-4468-8dc0-57bbff557519",
            "content": {
                "resourceType": "Observation",
                "name": {
                    "coding": [
                        {
                            "system": "http://loinc.org",
                            "code": "39156-5",
                            "display": "Body Mass Index Calculated"
                        }
                    ],
                    "text": "Body Mass Index Calculated"
                },
                "valueQuantity": {
                    "value": 26,
                    "units": "kg/m2",
                    "code": "kg/m2",
                    "system": "http://unitsofmeasure.org"
                },
                "issued": "2011-03-12",
                "status": "final",
                "reliability": "ok",
                "extension": [
                    {
                        "url": "http://amida.com/fhir/Profile/extensions#observation-type",
                        "valueCoding": {
                            "code": "8716-3",
                            "display": "Vital signs",
                            "system": "http://loinc.org"
                        }
                    }
                ],
                "interpretation": {
                    "coding": [
                        {
                            "system": "http://hl7.org/fhir/v2/0078",
                            "code": "N",
                            "display": "Normal"
                        }
                    ],
                    "text": "Normal"
                }
            }
        },
        {
            "id": "Observation/89a216a6-f8af-4aa9-82ac-1f7d7b602574",
            "content": {
                "resourceType": "Observation",
                "name": {
                    "coding": [
                        {
                            "system": "http://loinc.org",
                            "code": "35094-2",
                            "display": "Blood pressure panel"
                        }
                    ],
                    "text": "Blood pressure panel"
                },
                "issued": "2011-03-12",
                "status": "final",
                "reliability": "ok",
                "extension": [
                    {
                        "url": "http://amida.com/fhir/Profile/extensions#observation-type",
                        "valueCoding": {
                            "code": "8716-3",
                            "display": "Vital signs",
                            "system": "http://loinc.org"
                        }
                    }
                ],
                "related": [
                    {
                        "type": "has-component",
                        "target": {
                            "reference": "Observation/6115f839-eec8-4178-ad95-07564d65496b"
                        }
                    },
                    {
                        "type": "has-component",
                        "target": {
                            "reference": "Observation/d8851655-901f-4705-ab61-07a5f1d0776b"
                        }
                    }
                ]
            }
        },
        {
            "id": "Observation/db8306e9-7351-4455-b27e-f333b42a0f9d",
            "content": {
                "resourceType": "Observation",
                "name": {
                    "coding": [
                        {
                            "system": "http://loinc.org",
                            "code": "55418-8",
                            "display": "Weight and Height tracking panel"
                        }
                    ],
                    "text": "Weight and Height tracking panel"
                },
                "issued": "2011-03-12",
                "status": "final",
                "reliability": "ok",
                "extension": [
                    {
                        "url": "http://amida.com/fhir/Profile/extensions#observation-type",
                        "valueCoding": {
                            "code": "8716-3",
                            "display": "Vital signs",
                            "system": "http://loinc.org"
                        }
                    }
                ],
                "related": [
                    {
                        "type": "has-component",
                        "target": {
                            "reference": "Observation/8afba4c7-b61a-4975-b1fe-c8876a7b2444"
                        }
                    },
                    {
                        "type": "has-component",
                        "target": {
                            "reference": "Observation/a4a08cb7-7ab8-4468-8dc0-57bbff557519"
                        }
                    }
                ]
            }
        },
        {
            "id": "Condition/cedbc772-16d5-4372-8482-3358be2770f3",
            "content": {
                "resourceType": "Condition",
                "status": "confirmed",
                "code": {
                    "coding": [
                        {
                            "system": "http://snomed.info/sct",
                            "code": "61373006",
                            "display": "Urinary tract infection, site not specified"
                        }
                    ],
                    "text": "Urinary tract infection, site not specified"
                }
            }
        },
        {
            "id": "Condition/587cacb1-e11a-4b25-a224-e5b49cb56a09",
            "content": {
                "resourceType": "Condition",
                "status": "confirmed",
                "onsetDate": "2011-03-12",
                "dateAsserted": "2011-03-12",
                "code": {
                    "coding": [
                        {
                            "system": "http://snomed.info/sct",
                            "code": "195967001",
                            "display": "Asthma"
                        }
                    ],
                    "text": "Asthma"
                }
            }
        },
        {
            "id": "Condition/4f0c7ccf-9dc8-4785-a58b-8a03d88768ec",
            "content": {
                "resourceType": "Condition",
                "status": "confirmed",
                "code": {
                    "coding": [
                        {
                            "system": "http://snomed.info/sct",
                            "code": "78691002",
                            "display": "Staggering gait"
                        }
                    ],
                    "text": "Staggering gait"
                }
            }
        },
        {
            "id": "Condition/0e5a907d-9070-42a3-b701-ac81ce7d5966",
            "content": {
                "resourceType": "Condition",
                "status": "confirmed",
                "code": {
                    "coding": [
                        {
                            "system": "http://snomed.info/sct",
                            "code": "195967001",
                            "display": "Asthma"
                        }
                    ],
                    "text": "Asthma"
                }
            }
        },
        {
            "id": "Condition/ce96729b-0386-4dd1-b298-2b57353cc306",
            "content": {
                "resourceType": "Condition",
                "status": "confirmed",
                "code": {
                    "coding": [
                        {
                            "system": "http://snomed.info/sct",
                            "code": "95891005",
                            "display": "Flu-like symptoms"
                        }
                    ],
                    "text": "Flu-like symptoms"
                }
            }
        },
        {
            "id": "Condition/99d5c1ff-c1dc-46b4-a713-74b5b78f1946",
            "content": {
                "resourceType": "Condition",
                "status": "confirmed",
                "onsetDate": "2013-05-13",
                "dateAsserted": "2013-05-13",
                "code": {
                    "coding": [
                        {
                            "system": "http://snomed.info/sct",
                            "code": "95891005",
                            "display": "Flu-like symptoms"
                        }
                    ],
                    "text": "Flu-like symptoms"
                }
            }
        },
        {
            "id": "Observation/5f8417fa-e5bc-46d7-9854-8d0100c12c94",
            "content": {
                "resourceType": "Observation",
                "name": {
                    "coding": [
                        {
                            "system": "http://loinc.org",
                            "code": "30313-1",
                            "display": "Hemoglobin A, Serum"
                        }
                    ],
                    "text": "Hemoglobin A, Serum"
                },
                "valueQuantity": {
                    "value": 16,
                    "units": "g/dl",
                    "code": "g/dl",
                    "system": "http://unitsofmeasure.org"
                },
                "issued": "2013-05-13",
                "status": "final",
                "reliability": "ok",
                "extension": [
                    {
                        "url": "http://amida.com/fhir/Profile/extensions#observation-type",
                        "valueCoding": {
                            "code": "11502-2",
                            "display": "Laboratory report",
                            "system": "http://loinc.org"
                        }
                    }
                ],
                "referenceRange": [
                    {
                        "meaning": {
                            "coding": [
                                {
                                    "system": "http://hl7.org/fhir/referencerange-meaning",
                                    "code": "normal",
                                    "display": "Normal Range"
                                }
                            ],
                            "text": "Normal Range"
                        },
                        "text": "13.5 - 18.0 g/dl"
                    }
                ]
            }
        },
        {
            "id": "Observation/65d09dd4-872b-47e0-93db-d75319324dd5",
            "content": {
                "resourceType": "Observation",
                "name": {
                    "coding": [
                        {
                            "system": "http://loinc.org",
                            "code": "20570-8",
                            "display": "Hematocrit, Whole Blood"
                        }
                    ],
                    "text": "Hematocrit, Whole Blood"
                },
                "valueQuantity": {
                    "value": 44,
                    "units": "%",
                    "code": "%",
                    "system": "http://unitsofmeasure.org"
                },
                "issued": "2013-05-13",
                "status": "final",
                "reliability": "ok",
                "extension": [
                    {
                        "url": "http://amida.com/fhir/Profile/extensions#observation-type",
                        "valueCoding": {
                            "code": "11502-2",
                            "display": "Laboratory report",
                            "system": "http://loinc.org"
                        }
                    }
                ],
                "referenceRange": [
                    {
                        "meaning": {
                            "coding": [
                                {
                                    "system": "http://hl7.org/fhir/referencerange-meaning",
                                    "code": "normal",
                                    "display": "Normal Range"
                                }
                            ],
                            "text": "Normal Range"
                        },
                        "text": "41 - 53 %"
                    }
                ]
            }
        },
        {
            "id": "Observation/bab810e6-fd55-4b15-b9fc-befdbde69f52",
            "content": {
                "resourceType": "Observation",
                "name": {
                    "coding": [
                        {
                            "system": "http://loinc.org",
                            "code": "26464-8",
                            "display": "WBC Count"
                        }
                    ],
                    "text": "WBC Count"
                },
                "valueQuantity": {
                    "value": 6,
                    "units": "ul",
                    "code": "ul",
                    "system": "http://unitsofmeasure.org"
                },
                "issued": "2013-05-13",
                "status": "final",
                "reliability": "ok",
                "extension": [
                    {
                        "url": "http://amida.com/fhir/Profile/extensions#observation-type",
                        "valueCoding": {
                            "code": "11502-2",
                            "display": "Laboratory report",
                            "system": "http://loinc.org"
                        }
                    }
                ],
                "referenceRange": [
                    {
                        "meaning": {
                            "coding": [
                                {
                                    "system": "http://hl7.org/fhir/referencerange-meaning",
                                    "code": "normal",
                                    "display": "Normal Range"
                                }
                            ],
                            "text": "Normal Range"
                        },
                        "text": "4.3 - 10.8 ul"
                    }
                ]
            }
        },
        {
            "id": "MedicationPrescription/044d9ef0-341e-4d4f-acea-6c479551db92",
            "content": {
                "resourceType": "MedicationPrescription",
                "status": "active",
                "dateWritten": "2013-05-13",
                "dosageInstruction": [
                    {
                        "route": {
                            "coding": [
                                {
                                    "system": "urn:oid:2.16.840.1.113883.3.26.1.1",
                                    "code": "C38288",
                                    "display": "ORAL"
                                }
                            ],
                            "text": "ORAL"
                        },
                        "doseQuantity": {
                            "value": 1,
                            "units": "cap(s)",
                            "code": "cap(s)",
                            "system": "http://unitsofmeasure.org"
                        },
                        "timingPeriod": {
                            "start": "2013-05-13"
                        }
                    }
                ],
                "contained": [
                    {
                        "id": "med",
                        "resourceType": "Medication",
                        "name": "oseltamivir 30 mg oral capsule",
                        "code": {
                            "coding": [
                                {
                                    "system": "http://www.nlm.nih.gov/research/umls/rxnorm",
                                    "code": "728109",
                                    "display": "oseltamivir 30 mg oral capsule"
                                }
                            ],
                            "text": "oseltamivir 30 mg oral capsule"
                        }
                    }
                ],
                "medication": {
                    "reference": "#med",
                    "display": "oseltamivir 30 mg oral capsule"
                }
            }
        },
        {
            "id": "MedicationPrescription/c22b91d8-8b57-414b-b270-1f067eae10ee",
            "content": {
                "resourceType": "MedicationPrescription",
                "status": "active",
                "dateWritten": "2011-04-13",
                "dosageInstruction": [
                    {
                        "doseQuantity": {
                            "value": 2,
                            "units": "puff(s)",
                            "code": "puff(s)",
                            "system": "http://unitsofmeasure.org"
                        },
                        "timingPeriod": {
                            "start": "2011-04-13"
                        }
                    }
                ],
                "contained": [
                    {
                        "id": "med",
                        "resourceType": "Medication",
                        "name": "Proventil HFA CFC free 90 mcg/inh inhalation aerosol",
                        "code": {
                            "coding": [
                                {
                                    "system": "http://www.nlm.nih.gov/research/umls/rxnorm",
                                    "code": "745679",
                                    "display": "Proventil HFA CFC free 90 mcg/inh inhalation aerosol"
                                }
                            ],
                            "text": "Proventil HFA CFC free 90 mcg/inh inhalation aerosol"
                        }
                    }
                ],
                "medication": {
                    "reference": "#med",
                    "display": "Proventil HFA CFC free 90 mcg/inh inhalation aerosol"
                }
            }
        }
    ]
}