{
    "resourceType": "Bundle",
    "totalResults": 23,
    "entry": [
        {
            "id": "Patient/some-id-here-1987",
            "content": {
                "resourceType": "Patient",
                "identifier": [
                    {
                        "system": "http://www.midea-tecg.com",
                        "value": "JOE_DOE_IDENTIFIER"
                    }
                ],
                "name": [
                    {
                        "family": [
                            "DOE"
                        ],
                        "given": [
                            "JOE"
                        ]
                    }
                ]
            }
        },
        {
            "id": "AdverseReaction/c21f3da6-a31e-4a1e-9f76-bdfb0e6fec51",
            "content": {
                "resourceType": "AdverseReaction",
                "symptom": [
                    {
                        "code": {
                            "coding": [
                                {
                                    "system": "http://snomed.info/sct",
                                    "code": "247472004",
                                    "display": "Hives"
                                }
                            ],
                            "text": "Hives"
                        }
                    }
                ],
                "didNotOccurFlag": false,
                "subject": {
                    "reference": "Patient/some-id-here-1987",
                    "display": "DOE, JOE"
                }
            }
        },
        {
            "id": "AllergyIntolerance/8434c80a-bff0-45bc-b6cb-c44db4cfef38",
            "content": {
                "resourceType": "AllergyIntolerance",
                "criticality": "medium",
                "sensitivityType": "allergy",
                "recordedDate": "2009-09-02",
                "status": "confirmed",
                "contained": [
                    {
                        "id": "allergen",
                        "resourceType": "Substance",
                        "type": {
                            "coding": [
                                {
                                    "system": "http://www.nlm.nih.gov/research/umls/rxnorm",
                                    "code": "314422",
                                    "display": "ALLERGENIC EXTRACT, PENICILLIN"
                                }
                            ],
                            "text": "ALLERGENIC EXTRACT, PENICILLIN"
                        }
                    }
                ],
                "substance": {
                    "reference": "#allergen",
                    "display": "ALLERGENIC EXTRACT, PENICILLIN"
                },
                "reaction": [
                    {
                        "reference": "AdverseReaction/c21f3da6-a31e-4a1e-9f76-bdfb0e6fec51",
                        "display": "Hives"
                    }
                ],
                "subject": {
                    "reference": "Patient/some-id-here-1987",
                    "display": "DOE, JOE"
                }
            }
        },
        {
            "id": "AdverseReaction/3c1e3c02-7a6e-40f4-98c1-1efe2ab1b790",
            "content": {
                "resourceType": "AdverseReaction",
                "symptom": [
                    {
                        "code": {
                            "coding": [
                                {
                                    "system": "http://snomed.info/sct",
                                    "code": "56018004",
                                    "display": "Wheezing"
                                }
                            ],
                            "text": "Wheezing"
                        }
                    }
                ],
                "didNotOccurFlag": false,
                "subject": {
                    "reference": "Patient/some-id-here-1987",
                    "display": "DOE, JOE"
                }
            }
        },
        {
            "id": "AllergyIntolerance/35214389-d904-4bff-b127-d06895349226",
            "content": {
                "resourceType": "AllergyIntolerance",
                "criticality": "medium",
                "sensitivityType": "allergy",
                "recordedDate": "2009-09-02",
                "status": "confirmed",
                "contained": [
                    {
                        "id": "allergen",
                        "resourceType": "Substance",
                        "type": {
                            "coding": [
                                {
                                    "system": "http://fdasis.nlm.nih.gov",
                                    "code": "R16CO5Y76E",
                                    "display": "ASPIRIN"
                                }
                            ],
                            "text": "ASPIRIN"
                        }
                    }
                ],
                "substance": {
                    "reference": "#allergen",
                    "display": "ASPIRIN"
                },
                "reaction": [
                    {
                        "reference": "AdverseReaction/3c1e3c02-7a6e-40f4-98c1-1efe2ab1b790",
                        "display": "Wheezing"
                    }
                ],
                "subject": {
                    "reference": "Patient/some-id-here-1987",
                    "display": "DOE, JOE"
                }
            }
        },
        {
            "id": "AdverseReaction/a6f176f6-0db6-42ad-b1bb-3cf7f0736fb6",
            "content": {
                "resourceType": "AdverseReaction",
                "symptom": [
                    {
                        "code": {
                            "coding": [
                                {
                                    "system": "http://snomed.info/sct",
                                    "code": "73879007",
                                    "display": "Nausea"
                                }
                            ],
                            "text": "Nausea"
                        }
                    }
                ],
                "didNotOccurFlag": false,
                "subject": {
                    "reference": "Patient/some-id-here-1987",
                    "display": "DOE, JOE"
                }
            }
        },
        {
            "id": "AllergyIntolerance/84415113-632f-460c-b520-2f7806e77ad9",
            "content": {
                "resourceType": "AllergyIntolerance",
                "criticality": "medium",
                "sensitivityType": "allergy",
                "recordedDate": "2009-09-02",
                "status": "confirmed",
                "contained": [
                    {
                        "id": "allergen",
                        "resourceType": "Substance",
                        "type": {
                            "coding": [
                                {
                                    "system": "http://fdasis.nlm.nih.gov",
                                    "code": "Q830PW7520",
                                    "display": "Codeine"
                                }
                            ],
                            "text": "Codeine"
                        }
                    }
                ],
                "substance": {
                    "reference": "#allergen",
                    "display": "Codeine"
                },
                "reaction": [
                    {
                        "reference": "AdverseReaction/a6f176f6-0db6-42ad-b1bb-3cf7f0736fb6",
                        "display": "Nausea"
                    }
                ],
                "subject": {
                    "reference": "Patient/some-id-here-1987",
                    "display": "DOE, JOE"
                }
            }
        },
        {
            "id": "Observation/f41c29d2-d7eb-4a53-b843-145567e74494",
            "content": {
                "resourceType": "Observation",
                "name": {
                    "coding": [
                        {
                            "system": "http://loinc.org",
                            "code": "8302-2",
                            "display": "Height"
                        }
                    ],
                    "text": "Height"
                },
                "valueQuantity": {
                    "value": 177,
                    "units": "cm",
                    "code": "cm",
                    "system": "http://unitsofmeasure.org"
                },
                "issued": "1999-11-14",
                "status": "final",
                "reliability": "ok",
                "extension": [
                    {
                        "url": "http://amida.com/fhir/Profile/extensions#observation-type",
                        "valueCoding": {
                            "code": "8716-3",
                            "display": "Vital signs",
                            "system": "http://loinc.org"
                        }
                    }
                ],
                "interpretation": {
                    "coding": [
                        {
                            "system": "http://hl7.org/fhir/v2/0078",
                            "code": "N",
                            "display": "Normal"
                        }
                    ],
                    "text": "Normal"
                },
                "subject": {
                    "reference": "Patient/some-id-here-1987",
                    "display": "DOE, JOE"
                }
            }
        },
        {
            "id": "Observation/fb1294a0-ea7e-497b-a340-2c15b394fe5b",
            "content": {
                "resourceType": "Observation",
                "name": {
                    "coding": [
                        {
                            "system": "http://loinc.org",
                            "code": "3141-9",
                            "display": "Patient Body Weight - Measured"
                        }
                    ],
                    "text": "Patient Body Weight - Measured"
                },
                "valueQuantity": {
                    "value": 86,
                    "units": "kg",
                    "code": "kg",
                    "system": "http://unitsofmeasure.org"
                },
                "issued": "1999-11-14",
                "status": "final",
                "reliability": "ok",
                "extension": [
                    {
                        "url": "http://amida.com/fhir/Profile/extensions#observation-type",
                        "valueCoding": {
                            "code": "8716-3",
                            "display": "Vital signs",
                            "system": "http://loinc.org"
                        }
                    }
                ],
                "interpretation": {
                    "coding": [
                        {
                            "system": "http://hl7.org/fhir/v2/0078",
                            "code": "N",
                            "display": "Normal"
                        }
                    ],
                    "text": "Normal"
                },
                "subject": {
                    "reference": "Patient/some-id-here-1987",
                    "display": "DOE, JOE"
                }
            }
        },
        {
            "id": "Observation/9cc96094-a921-4927-b12b-6229f0cc11ff",
            "content": {
                "resourceType": "Observation",
                "name": {
                    "coding": [
                        {
                            "system": "http://loinc.org",
                            "code": "8480-6",
                            "display": "Intravascular Systolic"
                        }
                    ],
                    "text": "Intravascular Systolic"
                },
                "valueQuantity": {
                    "value": 132,
                    "units": "mm[Hg]",
                    "code": "mm[Hg]",
                    "system": "http://unitsofmeasure.org"
                },
                "issued": "1999-11-14",
                "status": "final",
                "reliability": "ok",
                "extension": [
                    {
                        "url": "http://amida.com/fhir/Profile/extensions#observation-type",
                        "valueCoding": {
                            "code": "8716-3",
                            "display": "Vital signs",
                            "system": "http://loinc.org"
                        }
                    }
                ],
                "interpretation": {
                    "coding": [
                        {
                            "system": "http://hl7.org/fhir/v2/0078",
                            "code": "N",
                            "display": "Normal"
                        }
                    ],
                    "text": "Normal"
                },
                "subject": {
                    "reference": "Patient/some-id-here-1987",
                    "display": "DOE, JOE"
                }
            }
        },
        {
            "id": "Observation/91b3e9a5-07f7-428e-9003-6ec09a208feb",
            "content": {
                "resourceType": "Observation",
                "name": {
                    "coding": [
                        {
                            "system": "http://loinc.org",
                            "code": "8302-2",
                            "display": "Height"
                        }
                    ],
                    "text": "Height"
                },
                "valueQuantity": {
                    "value": 177,
                    "units": "cm",
                    "code": "cm",
                    "system": "http://unitsofmeasure.org"
                },
                "issued": "2000-04-07",
                "status": "final",
                "reliability": "ok",
                "extension": [
                    {
                        "url": "http://amida.com/fhir/Profile/extensions#observation-type",
                        "valueCoding": {
                            "code": "8716-3",
                            "display": "Vital signs",
                            "system": "http://loinc.org"
                        }
                    }
                ],
                "interpretation": {
                    "coding": [
                        {
                            "system": "http://hl7.org/fhir/v2/0078",
                            "code": "N",
                            "display": "Normal"
                        }
                    ],
                    "text": "Normal"
                },
                "subject": {
                    "reference": "Patient/some-id-here-1987",
                    "display": "DOE, JOE"
                }
            }
        },
        {
            "id": "Observation/4e9172b1-2d07-437b-86f7-54105156ecd9",
            "content": {
                "resourceType": "Observation",
                "name": {
                    "coding": [
                        {
                            "system": "http://loinc.org",
                            "code": "3141-9",
                            "display": "Patient Body Weight - Measured"
                        }
                    ],
                    "text": "Patient Body Weight - Measured"
                },
                "valueQuantity": {
                    "value": 88,
                    "units": "kg",
                    "code": "kg",
                    "system": "http://unitsofmeasure.org"
                },
                "issued": "2000-04-07",
                "status": "final",
                "reliability": "ok",
                "extension": [
                    {
                        "url": "http://amida.com/fhir/Profile/extensions#observation-type",
                        "valueCoding": {
                            "code": "8716-3",
                            "display": "Vital signs",
                            "system": "http://loinc.org"
                        }
                    }
                ],
                "interpretation": {
                    "coding": [
                        {
                            "system": "http://hl7.org/fhir/v2/0078",
                            "code": "N",
                            "display": "Normal"
                        }
                    ],
                    "text": "Normal"
                },
                "subject": {
                    "reference": "Patient/some-id-here-1987",
                    "display": "DOE, JOE"
                }
            }
        },
        {
            "id": "Observation/76aafea9-6535-499d-bb72-b44caca6d28e",
            "content": {
                "resourceType": "Observation",
                "name": {
                    "coding": [
                        {
                            "system": "http://loinc.org",
                            "code": "8480-6",
                            "display": "Intravascular Systolic"
                        }
                    ],
                    "text": "Intravascular Systolic"
                },
                "valueQuantity": {
                    "value": 145,
                    "units": "mm[Hg]",
                    "code": "mm[Hg]",
                    "system": "http://unitsofmeasure.org"
                },
                "issued": "2000-04-07",
                "status": "final",
                "reliability": "ok",
                "extension": [
                    {
                        "url": "http://amida.com/fhir/Profile/extensions#observation-type",
                        "valueCoding": {
                            "code": "8716-3",
                            "display": "Vital signs",
                            "system": "http://loinc.org"
                        }
                    }
                ],
                "interpretation": {
                    "coding": [
                        {
                            "system": "http://hl7.org/fhir/v2/0078",
                            "code": "N",
                            "display": "Normal"
                        }
                    ],
                    "text": "Normal"
                },
                "subject": {
                    "reference": "Patient/some-id-here-1987",
                    "display": "DOE, JOE"
                }
            }
        },
        {
            "id": "Observation/b6cf8505-8e10-4814-8ffb-c93f0cf93fba",
            "content": {
                "resourceType": "Observation",
                "name": {
                    "coding": [
                        {
                            "system": "http://loinc.org",
                            "code": "55418-8",
                            "display": "Weight and Height tracking panel"
                        }
                    ],
                    "text": "Weight and Height tracking panel"
                },
                "issued": "1999-11-14",
                "status": "final",
                "reliability": "ok",
                "extension": [
                    {
                        "url": "http://amida.com/fhir/Profile/extensions#observation-type",
                        "valueCoding": {
                            "code": "8716-3",
                            "display": "Vital signs",
                            "system": "http://loinc.org"
                        }
                    }
                ],
                "related": [
                    {
                        "type": "has-component",
                        "target": {
                            "reference": "Observation/f41c29d2-d7eb-4a53-b843-145567e74494"
                        }
                    },
                    {
                        "type": "has-component",
                        "target": {
                            "reference": "Observation/fb1294a0-ea7e-497b-a340-2c15b394fe5b"
                        }
                    }
                ],
                "subject": {
                    "reference": "Patient/some-id-here-1987",
                    "display": "DOE, JOE"
                }
            }
        },
        {
            "id": "Observation/c3d1946f-773c-4f40-ae2a-ea3ed4c1312e",
            "content": {
                "resourceType": "Observation",
                "name": {
                    "coding": [
                        {
                            "system": "http://loinc.org",
                            "code": "55418-8",
                            "display": "Weight and Height tracking panel"
                        }
                    ],
                    "text": "Weight and Height tracking panel"
                },
                "issued": "2000-04-07",
                "status": "final",
                "reliability": "ok",
                "extension": [
                    {
                        "url": "http://amida.com/fhir/Profile/extensions#observation-type",
                        "valueCoding": {
                            "code": "8716-3",
                            "display": "Vital signs",
                            "system": "http://loinc.org"
                        }
                    }
                ],
                "related": [
                    {
                        "type": "has-component",
                        "target": {
                            "reference": "Observation/91b3e9a5-07f7-428e-9003-6ec09a208feb"
                        }
                    },
                    {
                        "type": "has-component",
                        "target": {
                            "reference": "Observation/4e9172b1-2d07-437b-86f7-54105156ecd9"
                        }
                    }
                ],
                "subject": {
                    "reference": "Patient/some-id-here-1987",
                    "display": "DOE, JOE"
                }
            }
        },
        {
            "id": "Observation/9166470e-afda-47a4-88b7-daee09dea3e7",
            "content": {
                "resourceType": "Observation",
                "name": {
                    "coding": [
                        {
                            "system": "http://loinc.org",
                            "code": "35094-2",
                            "display": "Blood pressure panel"
                        }
                    ],
                    "text": "Blood pressure panel"
                },
                "issued": "1999-11-14",
                "status": "final",
                "reliability": "ok",
                "extension": [
                    {
                        "url": "http://amida.com/fhir/Profile/extensions#observation-type",
                        "valueCoding": {
                            "code": "8716-3",
                            "display": "Vital signs",
                            "system": "http://loinc.org"
                        }
                    }
                ],
                "related": [
                    {
                        "type": "has-component",
                        "target": {
                            "reference": "Observation/9cc96094-a921-4927-b12b-6229f0cc11ff"
                        }
                    }
                ],
                "subject": {
                    "reference": "Patient/some-id-here-1987",
                    "display": "DOE, JOE"
                }
            }
        },
        {
            "id": "Observation/698bc643-80a9-4a92-a454-a299477eb2c1",
            "content": {
                "resourceType": "Observation",
                "name": {
                    "coding": [
                        {
                            "system": "http://loinc.org",
                            "code": "35094-2",
                            "display": "Blood pressure panel"
                        }
                    ],
                    "text": "Blood pressure panel"
                },
                "issued": "2000-04-07",
                "status": "final",
                "reliability": "ok",
                "extension": [
                    {
                        "url": "http://amida.com/fhir/Profile/extensions#observation-type",
                        "valueCoding": {
                            "code": "8716-3",
                            "display": "Vital signs",
                            "system": "http://loinc.org"
                        }
                    }
                ],
                "related": [
                    {
                        "type": "has-component",
                        "target": {
                            "reference": "Observation/76aafea9-6535-499d-bb72-b44caca6d28e"
                        }
                    }
                ],
                "subject": {
                    "reference": "Patient/some-id-here-1987",
                    "display": "DOE, JOE"
                }
            }
        },
        {
            "id": "Observation/5546b642-7630-4e1b-87b0-46048f7c5afe",
            "content": {
                "resourceType": "Observation",
                "name": {
                    "coding": [
                        {
                            "system": "http://loinc.org",
                            "code": "30313-1",
                            "display": "HGB"
                        }
                    ],
                    "text": "HGB"
                },
                "valueQuantity": {
                    "value": 13.2,
                    "units": "g/dl",
                    "code": "g/dl",
                    "system": "http://unitsofmeasure.org"
                },
                "issued": "2000-03-23",
                "status": "final",
                "reliability": "ok",
                "extension": [
                    {
                        "url": "http://amida.com/fhir/Profile/extensions#observation-type",
                        "valueCoding": {
                            "code": "11502-2",
                            "display": "Laboratory report",
                            "system": "http://loinc.org"
                        }
                    }
                ],
                "interpretation": {
                    "coding": [
                        {
                            "system": "http://hl7.org/fhir/v2/0078",
                            "code": "N",
                            "display": "Normal"
                        }
                    ],
                    "text": "Normal"
                },
                "referenceRange": [
                    {
                        "meaning": {
                            "coding": [
                                {
                                    "system": "http://hl7.org/fhir/referencerange-meaning",
                                    "code": "normal",
                                    "display": "Normal Range"
                                }
                            ],
                            "text": "Normal Range"
                        },
                        "text": "M 13-18 g/dl; F 12-16 g/dl"
                    }
                ],
                "subject": {
                    "reference": "Patient/some-id-here-1987",
                    "display": "DOE, JOE"
                }
            }
        },
        {
            "id": "Observation/fee28286-15cb-46ee-9aef-6d5b5e5a61ac",
            "content": {
                "resourceType": "Observation",
                "name": {
                    "coding": [
                        {
                            "system": "http://loinc.org",
                            "code": "33765-9",
                            "display": "WBC"
                        }
                    ],
                    "text": "WBC"
                },
                "valueQuantity": {
                    "value": 6.7,
                    "units": "10+3/ul",
                    "code": "10+3/ul",
                    "system": "http://unitsofmeasure.org"
                },
                "issued": "2000-03-23",
                "status": "final",
                "reliability": "ok",
                "extension": [
                    {
                        "url": "http://amida.com/fhir/Profile/extensions#observation-type",
                        "valueCoding": {
                            "code": "11502-2",
                            "display": "Laboratory report",
                            "system": "http://loinc.org"
                        }
                    }
                ],
                "interpretation": {
                    "coding": [
                        {
                            "system": "http://hl7.org/fhir/v2/0078",
                            "code": "N",
                            "display": "Normal"
                        }
                    ],
                    "text": "Normal"
                },
                "referenceRange": [
                    {
                        "meaning": {
                            "coding": [
                                {
                                    "system": "http://hl7.org/fhir/referencerange-meaning",
                                    "code": "normal",
                                    "display": "Normal Range"
                                }
                            ],
                            "text": "Normal Range"
                        },
                        "low": {
                            "value": 4.3,
                            "units": "10+3/ul",
                            "code": "10+3/ul",
                            "system": "http://unitsofmeasure.org"
                        },
                        "high": {
                            "value": 10.8,
                            "units": "10+3/ul",
                            "code": "10+3/ul",
                            "system": "http://unitsofmeasure.org"
                        }
                    }
                ],
                "subject": {
                    "reference": "Patient/some-id-here-1987",
                    "display": "DOE, JOE"
                }
            }
        },
        {
            "id": "Observation/c0c35e70-c419-4aa2-8253-45b3daee2a76",
            "content": {
                "resourceType": "Observation",
                "name": {
                    "coding": [
                        {
                            "system": "http://loinc.org",
                            "code": "26515-7",
                            "display": "PLT"
                        }
                    ],
                    "text": "PLT"
                },
                "valueQuantity": {
                    "value": 123,
                    "units": "10+3/ul",
                    "code": "10+3/ul",
                    "system": "http://unitsofmeasure.org"
                },
                "issued": "2000-03-23",
                "status": "final",
                "reliability": "ok",
                "extension": [
                    {
                        "url": "http://amida.com/fhir/Profile/extensions#observation-type",
                        "valueCoding": {
                            "code": "11502-2",
                            "display": "Laboratory report",
                            "system": "http://loinc.org"
                        }
                    }
                ],
                "interpretation": {
                    "coding": [
                        {
                            "system": "http://hl7.org/fhir/v2/0078",
                            "code": "L",
                            "display": "Low"
                        }
                    ],
                    "text": "Low"
                },
                "referenceRange": [
                    {
                        "meaning": {
                            "coding": [
                                {
                                    "system": "http://hl7.org/fhir/referencerange-meaning",
                                    "code": "normal",
                                    "display": "Normal Range"
                                }
                            ],
                            "text": "Normal Range"
                        },
                        "low": {
                            "value": 150,
                            "units": "10+3/ul",
                            "code": "10+3/ul",
                            "system": "http://unitsofmeasure.org"
                        },
                        "high": {
                            "value": 350,
                            "units": "10+3/ul",
                            "code": "10+3/ul",
                            "system": "http://unitsofmeasure.org"
                        }
                    }
                ],
                "subject": {
                    "reference": "Patient/some-id-here-1987",
                    "display": "DOE, JOE"
                }
            }
        },
        {
            "id": "Observation/78090a64-72f7-48af-a88f-53f7095546c1",
            "content": {
                "resourceType": "Observation",
                "name": {
                    "coding": [
                        {
                            "system": "http://snomed.info/sct",
                            "code": "43789009",
                            "display": "CBC WO DIFFERENTIAL"
                        }
                    ],
                    "text": "CBC WO DIFFERENTIAL"
                },
                "status": "final",
                "reliability": "ok",
                "related": [
                    {
                        "type": "has-component",
                        "target": {
                            "reference": "Observation/5546b642-7630-4e1b-87b0-46048f7c5afe"
                        }
                    },
                    {
                        "type": "has-component",
                        "target": {
                            "reference": "Observation/fee28286-15cb-46ee-9aef-6d5b5e5a61ac"
                        }
                    },
                    {
                        "type": "has-component",
                        "target": {
                            "reference": "Observation/c0c35e70-c419-4aa2-8253-45b3daee2a76"
                        }
                    }
                ],
                "extension": [
                    {
                        "url": "http://amida.com/fhir/Profile/extensions#observation-type",
                        "valueCoding": {
                            "code": "11502-2",
                            "display": "Laboratory report",
                            "system": "http://loinc.org"
                        }
                    }
                ],
                "subject": {
                    "reference": "Patient/some-id-here-1987",
                    "display": "DOE, JOE"
                }
            }
        },
        {
            "id": "MedicationPrescription/e6a6e295-10a7-4660-9047-cb0a73ae3073",
            "content": {
                "resourceType": "MedicationPrescription",
                "status": "active",
                "dateWritten": "2011-03-01",
                "dosageInstruction": [
                    {
                        "route": {
                            "coding": [
                                {
                                    "system": "urn:oid:2.16.840.1.113883.3.26.1.1",
                                    "code": "C38216",
                                    "display": "RESPIRATORY (INHALATION)"
                                }
                            ],
                            "text": "RESPIRATORY (INHALATION)"
                        },
                        "doseQuantity": {
                            "value": 1
                        },
                        "timingSchedule": {
                            "event": [
                                {
                                    "start": "2011-03-01"
                                }
                            ],
                            "repeat": {
                                "frequency": 1,
                                "duration": 6,
                                "units": "h",
                                "end": "2012-03-01"
                            }
                        },
                        "asNeededCodeableConcept": {
                            "coding": [
                                {
                                    "system": "http://snomed.info/sct",
                                    "code": "56018004",
                                    "display": "Wheezing"
                                }
                            ],
                            "text": "Wheezing"
                        }
                    }
                ],
                "text": {
                    "status": "generated",
                    "div": "Proventil 0.09 MG/ACTUAT inhalant solution"
                },
                "contained": [
                    {
                        "id": "med",
                        "resourceType": "Medication",
                        "name": "Albuterol 0.09 MG/ACTUAT inhalant solution",
                        "code": {
                            "coding": [
                                {
                                    "system": "http://www.nlm.nih.gov/research/umls/rxnorm",
                                    "code": "329498",
                                    "display": "Albuterol 0.09 MG/ACTUAT inhalant solution"
                                }
                            ],
                            "text": "Albuterol 0.09 MG/ACTUAT inhalant solution"
                        }
                    }
                ],
                "medication": {
                    "reference": "#med",
                    "display": "Albuterol 0.09 MG/ACTUAT inhalant solution"
                },
                "patient": {
                    "reference": "Patient/some-id-here-1987",
                    "display": "DOE, JOE"
                }
            }
        },
        {
            "id": "MedicationAdministration/d20a9e80-e697-43e6-bfdf-673121afa7e8",
            "content": {
                "resourceType": "MedicationAdministration",
                "status": "completed",
                "practitioner": {
                    "reference": "Practitioner/unknown",
                    "display": "Unknown"
                },
                "whenGiven": {
                    "start": "2011-03-01",
                    "end": "2012-03-01"
                },
                "dosage": [
                    {
                        "route": {
                            "coding": [
                                {
                                    "system": "urn:oid:2.16.840.1.113883.3.26.1.1",
                                    "code": "C38216",
                                    "display": "RESPIRATORY (INHALATION)"
                                }
                            ],
                            "text": "RESPIRATORY (INHALATION)"
                        },
                        "quantity": {
                            "value": 1
                        },
                        "timingPeriod": {
                            "start": "2011-03-01",
                            "end": "2012-03-01"
                        },
                        "asNeededCodeableConcept": {
                            "coding": [
                                {
                                    "system": "http://snomed.info/sct",
                                    "code": "56018004",
                                    "display": "Wheezing"
                                }
                            ],
                            "text": "Wheezing"
                        }
                    }
                ],
                "prescription": {
                    "reference": "MedicationPrescription/e6a6e295-10a7-4660-9047-cb0a73ae3073",
                    "display": "Proventil 0.09 MG/ACTUAT inhalant solution"
                },
                "contained": [
                    {
                        "id": "med",
                        "resourceType": "Medication",
                        "name": "Albuterol 0.09 MG/ACTUAT inhalant solution",
                        "code": {
                            "coding": [
                                {
                                    "system": "http://www.nlm.nih.gov/research/umls/rxnorm",
                                    "code": "329498",
                                    "display": "Albuterol 0.09 MG/ACTUAT inhalant solution"
                                }
                            ],
                            "text": "Albuterol 0.09 MG/ACTUAT inhalant solution"
                        }
                    }
                ],
                "medication": {
                    "reference": "#med",
                    "display": "Albuterol 0.09 MG/ACTUAT inhalant solution"
                },
                "patient": {
                    "reference": "Patient/some-id-here-1987",
                    "display": "DOE, JOE"
                }
            }
        }
    ]
}