{
    "resourceType": "Bundle",
    "total": 16,
    "entry": [
        {
            "resource": {
                "id": "Patient/0",
                "resourceType": "Patient",
                "identifier": [
                    {
                        "system": "urn:oid:2.100"
                    }
                ],
                "name": [
                    {
                        "family": [
                            "Jones"
                        ],
                        "given": [
                            "Isabella"
                        ]
                    }
                ],
                "telecom": [
                    {
                        "system": "phone",
                        "value": "+1-5554445555",
                        "use": "home"
                    }
                ],
                "gender": "female",
                "birthDate": "1947-05-01",
                "address": [
                    {
                        "line": [
                            "1122 Mystical Rt 3"
                        ],
                        "city": "Beaverton",
                        "state": "OR",
                        "postalCode": "97005",
                        "country": "US"
                    }
                ],
                "communication": [
                    {
                        "language": {
                            "coding": [
                                {
                                    "code": "eng",
                                    "system": "urn:ietf:params:language"
                                }
                            ]
                        },
                        "preferred": true
                    }
                ],
                "extension": [
                    {
                        "url": "http://hl7.org/fhir/StructureDefinition/us-core-race",
                        "valueCodeableConcept": {
                            "coding": [
                                {
                                    "system": "urn:oid:2.16.840.1.113883.6.238",
                                    "code": "2106-3",
                                    "display": "White"
                                }
                            ]
                        }
                    },
                    {
                        "url": "http://hl7.org/fhir/StructureDefinition/us-core-ethnicity",
                        "valueCodeableConcept": {
                            "coding": [
                                {
                                    "system": "urn:oid:2.16.840.1.113883.6.238",
                                    "code": "2186-5",
                                    "display": "Not Hispanic or Latino"
                                }
                            ]
                        }
                    }
                ]
            }
        },
        {
            "resource": {
                "id": "AllergyIntolerance/1",
                "resourceType": "AllergyIntolerance",
                "recordedDate": "2012-08-06",
                "status": "confirmed",
                "substance": {
                    "coding": [
                        {
                            "system": "http://www.nlm.nih.gov/research/umls/rxnorm",
                            "code": "2670",
                            "display": "Codeine"
                        }
                    ],
                    "text": "Codeine"
                },
                "subject": {
                    "reference": "Patient/0",
                    "display": "Jones, Isabella"
                }
            }
        },
        {
            "resource": {
                "id": "AllergyIntolerance/2",
                "resourceType": "AllergyIntolerance",
                "recordedDate": "2012-08-06",
                "status": "confirmed",
                "substance": {
                    "coding": [
                        {
                            "system": "http://www.nlm.nih.gov/research/umls/rxnorm",
                            "code": "1191",
                            "display": "Aspirin"
                        }
                    ],
                    "text": "Aspirin"
                },
                "subject": {
                    "reference": "Patient/0",
                    "display": "Jones, Isabella"
                }
            }
        },
        {
            "resource": {
                "id": "AllergyIntolerance/3",
                "resourceType": "AllergyIntolerance",
                "recordedDate": "2012-08-06",
                "status": "confirmed",
                "substance": {
                    "coding": [
                        {
                            "system": "http://www.nlm.nih.gov/research/umls/rxnorm",
                            "code": "7982",
                            "display": "penicillin G benzathine"
                        }
                    ],
                    "text": "penicillin G benzathine"
                },
                "subject": {
                    "reference": "Patient/0",
                    "display": "Jones, Isabella"
                }
            }
        },
        {
            "resource": {
                "id": "Observation/4",
                "resourceType": "Observation",
                "code": {
                    "coding": [
                        {
                            "system": "http://loinc.org",
                            "code": "8302-2",
                            "display": "Body Height (Measured)"
                        }
                    ],
                    "text": "Body Height (Measured)"
                },
                "valueQuantity": {
                    "value": 69.69,
                    "units": "[in_us]",
                    "code": "[in_us]",
                    "system": "http://unitsofmeasure.org"
                },
                "issued": "2012-08-06",
                "status": "final",
                "reliability": "ok",
                "subject": {
                    "reference": "Patient/0",
                    "display": "Jones, Isabella"
                }
            }
        },
        {
            "resource": {
                "id": "Observation/5",
                "resourceType": "Observation",
                "code": {
                    "coding": [
                        {
                            "system": "http://loinc.org",
                            "code": "3141-9",
                            "display": "Body Weight (Measured)"
                        }
                    ],
                    "text": "Body Weight (Measured)"
                },
                "valueQuantity": {
                    "value": 194.01,
                    "units": "[lb_av]",
                    "code": "[lb_av]",
                    "system": "http://unitsofmeasure.org"
                },
                "issued": "2012-08-06",
                "status": "final",
                "reliability": "ok",
                "subject": {
                    "reference": "Patient/0",
                    "display": "Jones, Isabella"
                }
            }
        },
        {
            "resource": {
                "id": "Observation/6",
                "resourceType": "Observation",
                "code": {
                    "coding": [
                        {
                            "system": "http://loinc.org",
                            "code": "8480-6",
                            "display": "Intravascular Systolic"
                        }
                    ],
                    "text": "Intravascular Systolic"
                },
                "valueQuantity": {
                    "value": 135,
                    "units": "mm[Hg]",
                    "code": "mm[Hg]",
                    "system": "http://unitsofmeasure.org"
                },
                "issued": "2012-08-06",
                "status": "final",
                "reliability": "ok",
                "subject": {
                    "reference": "Patient/0",
                    "display": "Jones, Isabella"
                }
            }
        },
        {
            "resource": {
                "id": "Observation/7",
                "resourceType": "Observation",
                "code": {
                    "coding": [
                        {
                            "system": "http://loinc.org",
                            "code": "8462-4",
                            "display": "Intravascular Diastolic"
                        }
                    ],
                    "text": "Intravascular Diastolic"
                },
                "valueQuantity": {
                    "value": 92,
                    "units": "mm[Hg]",
                    "code": "mm[Hg]",
                    "system": "http://unitsofmeasure.org"
                },
                "issued": "2012-08-06",
                "status": "final",
                "reliability": "ok",
                "subject": {
                    "reference": "Patient/0",
                    "display": "Jones, Isabella"
                }
            }
        },
        {
            "resource": {
                "id": "Observation/8",
                "resourceType": "Observation",
                "code": {
                    "coding": [
                        {
                            "system": "http://loinc.org",
                            "code": "39156-5",
                            "display": "BMI (Body Mass Index)"
                        }
                    ],
                    "text": "BMI (Body Mass Index)"
                },
                "valueQuantity": {
                    "value": 28.08
                },
                "issued": "2012-08-06",
                "status": "final",
                "reliability": "ok",
                "subject": {
                    "reference": "Patient/0",
                    "display": "Jones, Isabella"
                }
            }
        },
        {
            "resource": {
                "id": "Observation/9",
                "resourceType": "Observation",
                "code": {
                    "coding": [
                        {
                            "system": "http://loinc.org",
                            "code": "55418-8",
                            "display": "Weight and Height tracking panel"
                        }
                    ],
                    "text": "Weight and Height tracking panel"
                },
                "issued": "2012-08-06",
                "status": "final",
                "reliability": "ok",
                "related": [
                    {
                        "type": "has-component",
                        "target": {
                            "reference": "Observation/4"
                        }
                    },
                    {
                        "type": "has-component",
                        "target": {
                            "reference": "Observation/5"
                        }
                    },
                    {
                        "type": "has-component",
                        "target": {
                            "reference": "Observation/8"
                        }
                    }
                ],
                "subject": {
                    "reference": "Patient/0",
                    "display": "Jones, Isabella"
                }
            }
        },
        {
            "resource": {
                "id": "Observation/10",
                "resourceType": "Observation",
                "code": {
                    "coding": [
                        {
                            "system": "http://loinc.org",
                            "code": "35094-2",
                            "display": "Blood pressure panel"
                        }
                    ],
                    "text": "Blood pressure panel"
                },
                "issued": "2012-08-06",
                "status": "final",
                "reliability": "ok",
                "related": [
                    {
                        "type": "has-component",
                        "target": {
                            "reference": "Observation/6"
                        }
                    },
                    {
                        "type": "has-component",
                        "target": {
                            "reference": "Observation/7"
                        }
                    }
                ],
                "subject": {
                    "reference": "Patient/0",
                    "display": "Jones, Isabella"
                }
            }
        },
        {
            "resource": {
                "id": "Observation/11",
                "resourceType": "Observation",
                "code": {
                    "coding": [
                        {
                            "system": "http://loinc.org",
                            "code": "UNK"
                        }
                    ]
                },
                "status": "final",
                "reliability": "ok",
                "subject": {
                    "reference": "Patient/0",
                    "display": "Jones, Isabella"
                }
            }
        },
        {
            "resource": {
                "id": "MedicationPrescription/12",
                "resourceType": "MedicationPrescription",
                "status": "active",
                "dateWritten": "2013-02-12",
                "dosageInstruction": [
                    {
                        "doseQuantity": {
                            "value": 1,
                            "units": "tablet",
                            "code": "tablet",
                            "system": "http://unitsofmeasure.org"
                        },
                        "timingSchedule": {
                            "event": [
                                {
                                    "start": "2013-02-12"
                                }
                            ],
                            "repeat": {
                                "frequency": 1,
                                "duration": 24,
                                "units": "h"
                            }
                        }
                    }
                ],
                "text": {
                    "status": "generated",
                    "div": "take 1 tablet by oral route every day"
                },
                "contained": [
                    {
                        "id": "med",
                        "resourceType": "Medication",
                        "name": "Metoprolol Tartrate 25 MG Oral Tablet",
                        "code": {
                            "coding": [
                                {
                                    "system": "http://www.nlm.nih.gov/research/umls/rxnorm",
                                    "code": "866924",
                                    "display": "Metoprolol Tartrate 25 MG Oral Tablet"
                                }
                            ],
                            "text": "Metoprolol Tartrate 25 MG Oral Tablet"
                        }
                    }
                ],
                "medication": {
                    "reference": "#med",
                    "display": "Metoprolol Tartrate 25 MG Oral Tablet"
                },
                "patient": {
                    "reference": "Patient/0",
                    "display": "Jones, Isabella"
                }
            }
        },
        {
            "resource": {
                "id": "MedicationPrescription/13",
                "resourceType": "MedicationPrescription",
                "status": "active",
                "dateWritten": "2012-08-06",
                "dosageInstruction": [
                    {
                        "timingPeriod": {
                            "start": "2012-08-06"
                        }
                    }
                ],
                "text": {
                    "status": "generated",
                    "div": "take 1 tablet by oral route 2 times daily for 7 days"
                },
                "contained": [
                    {
                        "id": "med",
                        "resourceType": "Medication",
                        "name": "Clarithromycin 500 MG Oral Tablet",
                        "code": {
                            "coding": [
                                {
                                    "system": "http://www.nlm.nih.gov/research/umls/rxnorm",
                                    "code": "197517",
                                    "display": "Clarithromycin 500 MG Oral Tablet"
                                }
                            ],
                            "text": "Clarithromycin 500 MG Oral Tablet"
                        }
                    }
                ],
                "medication": {
                    "reference": "#med",
                    "display": "Clarithromycin 500 MG Oral Tablet"
                },
                "patient": {
                    "reference": "Patient/0",
                    "display": "Jones, Isabella"
                }
            }
        },
        {
            "resource": {
                "id": "MedicationPrescription/14",
                "resourceType": "MedicationPrescription",
                "status": "completed",
                "dateWritten": "2012-04-02",
                "dosageInstruction": [
                    {
                        "doseQuantity": {
                            "value": 2,
                            "units": "puff",
                            "code": "puff",
                            "system": "http://unitsofmeasure.org"
                        },
                        "timingSchedule": {
                            "event": [
                                {
                                    "start": "2012-04-02"
                                }
                            ],
                            "repeat": {
                                "frequency": 1,
                                "duration": 4,
                                "units": "h",
                                "end": "2013-04-02"
                            }
                        }
                    }
                ],
                "text": {
                    "status": "generated",
                    "div": "inhale 2 puff by inhalation route every 4 - 6 hours as needed as needed for Wheezing"
                },
                "contained": [
                    {
                        "id": "med",
                        "resourceType": "Medication",
                        "name": "200 ACTUAT Albuterol 0.09 MG/ACTUAT Metered Dose Inhaler",
                        "code": {
                            "coding": [
                                {
                                    "system": "http://www.nlm.nih.gov/research/umls/rxnorm",
                                    "code": "745679",
                                    "display": "200 ACTUAT Albuterol 0.09 MG/ACTUAT Metered Dose Inhaler"
                                }
                            ],
                            "text": "200 ACTUAT Albuterol 0.09 MG/ACTUAT Metered Dose Inhaler"
                        }
                    }
                ],
                "medication": {
                    "reference": "#med",
                    "display": "200 ACTUAT Albuterol 0.09 MG/ACTUAT Metered Dose Inhaler"
                },
                "patient": {
                    "reference": "Patient/0",
                    "display": "Jones, Isabella"
                }
            }
        },
        {
            "resource": {
                "id": "MedicationPrescription/15",
                "resourceType": "MedicationPrescription",
                "status": "active",
                "dateWritten": "2012-08-06",
                "dosageInstruction": [
                    {
                        "timingPeriod": {
                            "start": "2012-08-06",
                            "end": "2012-08-06"
                        }
                    }
                ],
                "text": {
                    "status": "generated",
                    "div": "inhale 2 puffs once as needed"
                },
                "contained": [
                    {
                        "id": "med",
                        "resourceType": "Medication",
                        "name": "200 ACTUAT Albuterol 0.09 MG/ACTUAT Metered Dose Inhaler",
                        "code": {
                            "coding": [
                                {
                                    "system": "http://www.nlm.nih.gov/research/umls/rxnorm",
                                    "code": "745679",
                                    "display": "200 ACTUAT Albuterol 0.09 MG/ACTUAT Metered Dose Inhaler"
                                }
                            ],
                            "text": "200 ACTUAT Albuterol 0.09 MG/ACTUAT Metered Dose Inhaler"
                        }
                    }
                ],
                "medication": {
                    "reference": "#med",
                    "display": "200 ACTUAT Albuterol 0.09 MG/ACTUAT Metered Dose Inhaler"
                },
                "patient": {
                    "reference": "Patient/0",
                    "display": "Jones, Isabella"
                }
            }
        }
    ]
}