{
    "resourceType": "Bundle",
    "totalResults": 25,
    "entry": [
        {
            "id": "AdverseReaction/ecbb1600-0303-4f45-97ba-4d3c7c8355ee",
            "content": {
                "resourceType": "AdverseReaction",
                "symptom": [
                    {
                        "code": {
                            "coding": [
                                {
                                    "system": "http://snomed.info/sct",
                                    "code": "247472004",
                                    "display": "Hives"
                                }
                            ],
                            "text": "Hives"
                        }
                    }
                ],
                "didNotOccurFlag": false
            }
        },
        {
            "id": "AllergyIntolerance/1dcfebef-e62c-493e-b6f6-cefe88f09982",
            "content": {
                "resourceType": "AllergyIntolerance",
                "criticality": "medium",
                "sensitivityType": "allergy",
                "recordedDate": "2007-05-01",
                "status": "resolved",
                "contained": [
                    {
                        "id": "allergen",
                        "resourceType": "Substance",
                        "type": {
                            "coding": [
                                {
                                    "system": "http://www.nlm.nih.gov/research/umls/rxnorm",
                                    "code": "7982",
                                    "display": "Penicillin G benzathine"
                                }
                            ],
                            "text": "Penicillin G benzathine"
                        }
                    }
                ],
                "substance": {
                    "reference": "#allergen",
                    "display": "Penicillin G benzathine"
                },
                "reaction": [
                    {
                        "reference": "AdverseReaction/ecbb1600-0303-4f45-97ba-4d3c7c8355ee",
                        "display": "Hives"
                    }
                ]
            }
        },
        {
            "id": "AdverseReaction/ce9147ba-fd97-4d1a-90b0-e9280cdbcb26",
            "content": {
                "resourceType": "AdverseReaction",
                "symptom": [
                    {
                        "code": {
                            "coding": [
                                {
                                    "system": "http://snomed.info/sct",
                                    "code": "267036007",
                                    "display": "Shortness of Breath"
                                }
                            ],
                            "text": "Shortness of Breath"
                        }
                    }
                ],
                "didNotOccurFlag": false
            }
        },
        {
            "id": "AllergyIntolerance/69c21346-7697-447a-9ce4-2d9fc697a1cc",
            "content": {
                "resourceType": "AllergyIntolerance",
                "criticality": "medium",
                "sensitivityType": "allergy",
                "recordedDate": "2006-05-01",
                "status": "confirmed",
                "contained": [
                    {
                        "id": "allergen",
                        "resourceType": "Substance",
                        "type": {
                            "coding": [
                                {
                                    "system": "http://www.nlm.nih.gov/research/umls/rxnorm",
                                    "code": "2670",
                                    "display": "Codeine"
                                }
                            ],
                            "text": "Codeine"
                        }
                    }
                ],
                "substance": {
                    "reference": "#allergen",
                    "display": "Codeine"
                },
                "reaction": [
                    {
                        "reference": "AdverseReaction/ce9147ba-fd97-4d1a-90b0-e9280cdbcb26",
                        "display": "Shortness of Breath"
                    }
                ]
            }
        },
        {
            "id": "AdverseReaction/2c080d89-e2bd-4e88-8e86-24b2e69812fe",
            "content": {
                "resourceType": "AdverseReaction",
                "symptom": [
                    {
                        "code": {
                            "coding": [
                                {
                                    "system": "http://snomed.info/sct",
                                    "code": "247472004",
                                    "display": "Hives"
                                }
                            ],
                            "text": "Hives"
                        }
                    }
                ],
                "didNotOccurFlag": false
            }
        },
        {
            "id": "AllergyIntolerance/13d96431-9fd2-437c-aa8d-55f08af1f305",
            "content": {
                "resourceType": "AllergyIntolerance",
                "criticality": "low",
                "sensitivityType": "allergy",
                "recordedDate": "2008-05-01",
                "status": "confirmed",
                "contained": [
                    {
                        "id": "allergen",
                        "resourceType": "Substance",
                        "type": {
                            "coding": [
                                {
                                    "system": "http://www.nlm.nih.gov/research/umls/rxnorm",
                                    "code": "1191",
                                    "display": "Aspirin"
                                }
                            ],
                            "text": "Aspirin"
                        }
                    }
                ],
                "substance": {
                    "reference": "#allergen",
                    "display": "Aspirin"
                },
                "reaction": [
                    {
                        "reference": "AdverseReaction/2c080d89-e2bd-4e88-8e86-24b2e69812fe",
                        "display": "Hives"
                    }
                ]
            }
        },
        {
            "id": "Observation/7068812c-c41c-4baa-8ec7-b3ed386fb996",
            "content": {
                "resourceType": "Observation",
                "name": {
                    "coding": [
                        {
                            "system": "http://loinc.org",
                            "code": "8302-2",
                            "display": "Height"
                        }
                    ],
                    "text": "Height"
                },
                "valueQuantity": {
                    "value": 69,
                    "units": "in",
                    "code": "in",
                    "system": "http://unitsofmeasure.org"
                },
                "issued": "2008-11-01",
                "status": "final",
                "reliability": "ok",
                "extension": [
                    {
                        "url": "http://amida.com/fhir/Profile/extensions#observation-type",
                        "valueCoding": {
                            "code": "8716-3",
                            "display": "Vital signs",
                            "system": "http://loinc.org"
                        }
                    }
                ],
                "interpretation": {
                    "coding": [
                        {
                            "system": "http://hl7.org/fhir/v2/0078",
                            "code": "N",
                            "display": "Normal"
                        }
                    ],
                    "text": "Normal"
                }
            }
        },
        {
            "id": "Observation/51a815eb-bc59-455f-8e2d-ee2b77b1a168",
            "content": {
                "resourceType": "Observation",
                "name": {
                    "coding": [
                        {
                            "system": "http://loinc.org",
                            "code": "3141-9",
                            "display": "Patient Body Weight - Measured"
                        }
                    ],
                    "text": "Patient Body Weight - Measured"
                },
                "valueQuantity": {
                    "value": 189,
                    "units": "lbs",
                    "code": "lbs",
                    "system": "http://unitsofmeasure.org"
                },
                "issued": "2011-11-01",
                "status": "final",
                "reliability": "ok",
                "extension": [
                    {
                        "url": "http://amida.com/fhir/Profile/extensions#observation-type",
                        "valueCoding": {
                            "code": "8716-3",
                            "display": "Vital signs",
                            "system": "http://loinc.org"
                        }
                    }
                ],
                "interpretation": {
                    "coding": [
                        {
                            "system": "http://hl7.org/fhir/v2/0078",
                            "code": "N",
                            "display": "Normal"
                        }
                    ],
                    "text": "Normal"
                }
            }
        },
        {
            "id": "Observation/29f442e6-ec56-442c-b884-2ec335f435df",
            "content": {
                "resourceType": "Observation",
                "name": {
                    "coding": [
                        {
                            "system": "http://loinc.org",
                            "code": "8480-6",
                            "display": "Intravascular Systolic"
                        }
                    ],
                    "text": "Intravascular Systolic"
                },
                "valueQuantity": {
                    "value": 132,
                    "units": "mm[Hg]",
                    "code": "mm[Hg]",
                    "system": "http://unitsofmeasure.org"
                },
                "issued": "2011-11-01",
                "status": "final",
                "reliability": "ok",
                "extension": [
                    {
                        "url": "http://amida.com/fhir/Profile/extensions#observation-type",
                        "valueCoding": {
                            "code": "8716-3",
                            "display": "Vital signs",
                            "system": "http://loinc.org"
                        }
                    }
                ],
                "interpretation": {
                    "coding": [
                        {
                            "system": "http://hl7.org/fhir/v2/0078",
                            "code": "N",
                            "display": "Normal"
                        }
                    ],
                    "text": "Normal"
                }
            }
        },
        {
            "id": "Observation/53c62a15-2d70-4034-bb9e-ddb160b1f508",
            "content": {
                "resourceType": "Observation",
                "name": {
                    "coding": [
                        {
                            "system": "http://loinc.org",
                            "code": "8302-2",
                            "display": "Height"
                        }
                    ],
                    "text": "Height"
                },
                "valueQuantity": {
                    "value": 69,
                    "units": "in",
                    "code": "in",
                    "system": "http://unitsofmeasure.org"
                },
                "issued": "2012-08-06",
                "status": "final",
                "reliability": "ok",
                "extension": [
                    {
                        "url": "http://amida.com/fhir/Profile/extensions#observation-type",
                        "valueCoding": {
                            "code": "8716-3",
                            "display": "Vital signs",
                            "system": "http://loinc.org"
                        }
                    }
                ],
                "interpretation": {
                    "coding": [
                        {
                            "system": "http://hl7.org/fhir/v2/0078",
                            "code": "N",
                            "display": "Normal"
                        }
                    ],
                    "text": "Normal"
                }
            }
        },
        {
            "id": "Observation/25ff033a-aee9-4aa0-b1a4-4fd2d00710fa",
            "content": {
                "resourceType": "Observation",
                "name": {
                    "coding": [
                        {
                            "system": "http://loinc.org",
                            "code": "3141-9",
                            "display": "Patient Body Weight - Measured"
                        }
                    ],
                    "text": "Patient Body Weight - Measured"
                },
                "valueQuantity": {
                    "value": 194,
                    "units": "lbs",
                    "code": "lbs",
                    "system": "http://unitsofmeasure.org"
                },
                "issued": "2012-08-06",
                "status": "final",
                "reliability": "ok",
                "extension": [
                    {
                        "url": "http://amida.com/fhir/Profile/extensions#observation-type",
                        "valueCoding": {
                            "code": "8716-3",
                            "display": "Vital signs",
                            "system": "http://loinc.org"
                        }
                    }
                ],
                "interpretation": {
                    "coding": [
                        {
                            "system": "http://hl7.org/fhir/v2/0078",
                            "code": "N",
                            "display": "Normal"
                        }
                    ],
                    "text": "Normal"
                }
            }
        },
        {
            "id": "Observation/e53dfd85-3ce1-487e-bacc-72dc58d7b9f9",
            "content": {
                "resourceType": "Observation",
                "name": {
                    "coding": [
                        {
                            "system": "http://loinc.org",
                            "code": "8480-6",
                            "display": "Intravascular Systolic"
                        }
                    ],
                    "text": "Intravascular Systolic"
                },
                "valueQuantity": {
                    "value": 145,
                    "units": "mm[Hg]",
                    "code": "mm[Hg]",
                    "system": "http://unitsofmeasure.org"
                },
                "issued": "2012-08-06",
                "status": "final",
                "reliability": "ok",
                "extension": [
                    {
                        "url": "http://amida.com/fhir/Profile/extensions#observation-type",
                        "valueCoding": {
                            "code": "8716-3",
                            "display": "Vital signs",
                            "system": "http://loinc.org"
                        }
                    }
                ],
                "interpretation": {
                    "coding": [
                        {
                            "system": "http://hl7.org/fhir/v2/0078",
                            "code": "N",
                            "display": "Normal"
                        }
                    ],
                    "text": "Normal"
                }
            }
        },
        {
            "id": "Observation/e1b0c48a-beec-4c1f-8f81-5533590f0d92",
            "content": {
                "resourceType": "Observation",
                "name": {
                    "coding": [
                        {
                            "system": "http://loinc.org",
                            "code": "55418-8",
                            "display": "Weight and Height tracking panel"
                        }
                    ],
                    "text": "Weight and Height tracking panel"
                },
                "issued": "2008-11-01",
                "status": "final",
                "reliability": "ok",
                "extension": [
                    {
                        "url": "http://amida.com/fhir/Profile/extensions#observation-type",
                        "valueCoding": {
                            "code": "8716-3",
                            "display": "Vital signs",
                            "system": "http://loinc.org"
                        }
                    }
                ],
                "related": [
                    {
                        "type": "has-component",
                        "target": {
                            "reference": "Observation/7068812c-c41c-4baa-8ec7-b3ed386fb996"
                        }
                    }
                ]
            }
        },
        {
            "id": "Observation/0ccda908-a70d-4069-8f19-83f229ebced1",
            "content": {
                "resourceType": "Observation",
                "name": {
                    "coding": [
                        {
                            "system": "http://loinc.org",
                            "code": "55418-8",
                            "display": "Weight and Height tracking panel"
                        }
                    ],
                    "text": "Weight and Height tracking panel"
                },
                "issued": "2011-11-01",
                "status": "final",
                "reliability": "ok",
                "extension": [
                    {
                        "url": "http://amida.com/fhir/Profile/extensions#observation-type",
                        "valueCoding": {
                            "code": "8716-3",
                            "display": "Vital signs",
                            "system": "http://loinc.org"
                        }
                    }
                ],
                "related": [
                    {
                        "type": "has-component",
                        "target": {
                            "reference": "Observation/51a815eb-bc59-455f-8e2d-ee2b77b1a168"
                        }
                    }
                ]
            }
        },
        {
            "id": "Observation/86681ac1-a25f-42ae-a814-87d2b4f8774d",
            "content": {
                "resourceType": "Observation",
                "name": {
                    "coding": [
                        {
                            "system": "http://loinc.org",
                            "code": "55418-8",
                            "display": "Weight and Height tracking panel"
                        }
                    ],
                    "text": "Weight and Height tracking panel"
                },
                "issued": "2012-08-06",
                "status": "final",
                "reliability": "ok",
                "extension": [
                    {
                        "url": "http://amida.com/fhir/Profile/extensions#observation-type",
                        "valueCoding": {
                            "code": "8716-3",
                            "display": "Vital signs",
                            "system": "http://loinc.org"
                        }
                    }
                ],
                "related": [
                    {
                        "type": "has-component",
                        "target": {
                            "reference": "Observation/53c62a15-2d70-4034-bb9e-ddb160b1f508"
                        }
                    },
                    {
                        "type": "has-component",
                        "target": {
                            "reference": "Observation/25ff033a-aee9-4aa0-b1a4-4fd2d00710fa"
                        }
                    }
                ]
            }
        },
        {
            "id": "Observation/b5db7e5b-5278-4b59-83c9-67355a80fc0f",
            "content": {
                "resourceType": "Observation",
                "name": {
                    "coding": [
                        {
                            "system": "http://loinc.org",
                            "code": "35094-2",
                            "display": "Blood pressure panel"
                        }
                    ],
                    "text": "Blood pressure panel"
                },
                "issued": "2011-11-01",
                "status": "final",
                "reliability": "ok",
                "extension": [
                    {
                        "url": "http://amida.com/fhir/Profile/extensions#observation-type",
                        "valueCoding": {
                            "code": "8716-3",
                            "display": "Vital signs",
                            "system": "http://loinc.org"
                        }
                    }
                ],
                "related": [
                    {
                        "type": "has-component",
                        "target": {
                            "reference": "Observation/29f442e6-ec56-442c-b884-2ec335f435df"
                        }
                    }
                ]
            }
        },
        {
            "id": "Observation/d4d8ab5c-b6c9-4ed2-9c31-eb68d09cbe7d",
            "content": {
                "resourceType": "Observation",
                "name": {
                    "coding": [
                        {
                            "system": "http://loinc.org",
                            "code": "35094-2",
                            "display": "Blood pressure panel"
                        }
                    ],
                    "text": "Blood pressure panel"
                },
                "issued": "2012-08-06",
                "status": "final",
                "reliability": "ok",
                "extension": [
                    {
                        "url": "http://amida.com/fhir/Profile/extensions#observation-type",
                        "valueCoding": {
                            "code": "8716-3",
                            "display": "Vital signs",
                            "system": "http://loinc.org"
                        }
                    }
                ],
                "related": [
                    {
                        "type": "has-component",
                        "target": {
                            "reference": "Observation/e53dfd85-3ce1-487e-bacc-72dc58d7b9f9"
                        }
                    }
                ]
            }
        },
        {
            "id": "Condition/6d3b0beb-eddc-4050-9572-6452c85d91d0",
            "content": {
                "resourceType": "Condition",
                "status": "confirmed",
                "onsetDate": "2012-08-06",
                "dateAsserted": "2012-08-06",
                "abatementBoolean": true,
                "code": {
                    "coding": [
                        {
                            "system": "http://snomed.info/sct",
                            "code": "233604007",
                            "display": "Pneumonia"
                        }
                    ],
                    "text": "Pneumonia"
                }
            }
        },
        {
            "id": "Condition/2f947915-1cb9-4d77-9340-d61c37604e68",
            "content": {
                "resourceType": "Condition",
                "status": "confirmed",
                "onsetDate": "2007-01-03",
                "dateAsserted": "2007-01-03",
                "code": {
                    "coding": [
                        {
                            "system": "http://snomed.info/sct",
                            "code": "195967001",
                            "display": "Asthma"
                        }
                    ],
                    "text": "Asthma"
                }
            }
        },
        {
            "id": "Observation/678835d6-c713-4419-ab7d-e5ed7fce4cca",
            "content": {
                "resourceType": "Observation",
                "name": {
                    "coding": [
                        {
                            "system": "http://loinc.org",
                            "code": "30313-1",
                            "display": "HGB"
                        }
                    ],
                    "text": "HGB"
                },
                "valueQuantity": {
                    "value": 10.2,
                    "units": "g/dl",
                    "code": "g/dl",
                    "system": "http://unitsofmeasure.org"
                },
                "issued": "2012-08-10",
                "status": "final",
                "reliability": "ok",
                "extension": [
                    {
                        "url": "http://amida.com/fhir/Profile/extensions#observation-type",
                        "valueCoding": {
                            "code": "11502-2",
                            "display": "Laboratory report",
                            "system": "http://loinc.org"
                        }
                    }
                ],
                "interpretation": {
                    "coding": [
                        {
                            "system": "http://hl7.org/fhir/v2/0078",
                            "code": "N",
                            "display": "Normal"
                        }
                    ],
                    "text": "Normal"
                },
                "referenceRange": [
                    {
                        "meaning": {
                            "coding": [
                                {
                                    "system": "http://hl7.org/fhir/referencerange-meaning",
                                    "code": "normal",
                                    "display": "Normal Range"
                                }
                            ],
                            "text": "Normal Range"
                        },
                        "text": "M 13-18 g/dl; F 12-16 g/dl"
                    }
                ]
            }
        },
        {
            "id": "Observation/cc815dcb-ef33-4e5e-a522-6acc78ae1117",
            "content": {
                "resourceType": "Observation",
                "name": {
                    "coding": [
                        {
                            "system": "http://loinc.org",
                            "code": "33765-9",
                            "display": "WBC"
                        }
                    ],
                    "text": "WBC"
                },
                "valueQuantity": {
                    "value": 12.3,
                    "units": "10+3/ul",
                    "code": "10+3/ul",
                    "system": "http://unitsofmeasure.org"
                },
                "issued": "2012-08-10",
                "status": "final",
                "reliability": "ok",
                "extension": [
                    {
                        "url": "http://amida.com/fhir/Profile/extensions#observation-type",
                        "valueCoding": {
                            "code": "11502-2",
                            "display": "Laboratory report",
                            "system": "http://loinc.org"
                        }
                    }
                ],
                "interpretation": {
                    "coding": [
                        {
                            "system": "http://hl7.org/fhir/v2/0078",
                            "code": "N",
                            "display": "Normal"
                        }
                    ],
                    "text": "Normal"
                },
                "referenceRange": [
                    {
                        "meaning": {
                            "coding": [
                                {
                                    "system": "http://hl7.org/fhir/referencerange-meaning",
                                    "code": "normal",
                                    "display": "Normal Range"
                                }
                            ],
                            "text": "Normal Range"
                        },
                        "low": {
                            "value": 4.3,
                            "units": "10+3/ul",
                            "code": "10+3/ul",
                            "system": "http://unitsofmeasure.org"
                        },
                        "high": {
                            "value": 10.8,
                            "units": "10+3/ul",
                            "code": "10+3/ul",
                            "system": "http://unitsofmeasure.org"
                        }
                    }
                ]
            }
        },
        {
            "id": "Observation/f6fc3a91-e0df-4621-b83d-6f663308867a",
            "content": {
                "resourceType": "Observation",
                "name": {
                    "coding": [
                        {
                            "system": "http://loinc.org",
                            "code": "26515-7",
                            "display": "PLT"
                        }
                    ],
                    "text": "PLT"
                },
                "valueQuantity": {
                    "value": 123,
                    "units": "10+3/ul",
                    "code": "10+3/ul",
                    "system": "http://unitsofmeasure.org"
                },
                "issued": "2012-08-10",
                "status": "final",
                "reliability": "ok",
                "extension": [
                    {
                        "url": "http://amida.com/fhir/Profile/extensions#observation-type",
                        "valueCoding": {
                            "code": "11502-2",
                            "display": "Laboratory report",
                            "system": "http://loinc.org"
                        }
                    }
                ],
                "interpretation": {
                    "coding": [
                        {
                            "system": "http://hl7.org/fhir/v2/0078",
                            "code": "L",
                            "display": "Low"
                        }
                    ],
                    "text": "Low"
                },
                "referenceRange": [
                    {
                        "meaning": {
                            "coding": [
                                {
                                    "system": "http://hl7.org/fhir/referencerange-meaning",
                                    "code": "normal",
                                    "display": "Normal Range"
                                }
                            ],
                            "text": "Normal Range"
                        },
                        "low": {
                            "value": 150,
                            "units": "10+3/ul",
                            "code": "10+3/ul",
                            "system": "http://unitsofmeasure.org"
                        },
                        "high": {
                            "value": 350,
                            "units": "10+3/ul",
                            "code": "10+3/ul",
                            "system": "http://unitsofmeasure.org"
                        }
                    }
                ]
            }
        },
        {
            "id": "Observation/d5b691cb-28d2-42c7-8bd9-a27041b458f2",
            "content": {
                "resourceType": "Observation",
                "name": {
                    "coding": [
                        {
                            "system": "http://snomed.info/sct",
                            "code": "43789009",
                            "display": "CBC WO DIFFERENTIAL"
                        }
                    ],
                    "text": "CBC WO DIFFERENTIAL"
                },
                "status": "final",
                "reliability": "ok",
                "related": [
                    {
                        "type": "has-component",
                        "target": {
                            "reference": "Observation/678835d6-c713-4419-ab7d-e5ed7fce4cca"
                        }
                    },
                    {
                        "type": "has-component",
                        "target": {
                            "reference": "Observation/cc815dcb-ef33-4e5e-a522-6acc78ae1117"
                        }
                    },
                    {
                        "type": "has-component",
                        "target": {
                            "reference": "Observation/f6fc3a91-e0df-4621-b83d-6f663308867a"
                        }
                    }
                ],
                "extension": [
                    {
                        "url": "http://amida.com/fhir/Profile/extensions#observation-type",
                        "valueCoding": {
                            "code": "11502-2",
                            "display": "Laboratory report",
                            "system": "http://loinc.org"
                        }
                    }
                ]
            }
        },
        {
            "id": "MedicationPrescription/1482de13-f9f2-4ddf-81c1-e69ef9f677bd",
            "content": {
                "resourceType": "MedicationPrescription",
                "status": "active",
                "dateWritten": "2012-08-06",
                "dosageInstruction": [
                    {
                        "route": {
                            "coding": [
                                {
                                    "system": "urn:oid:2.16.840.1.113883.3.26.1.1",
                                    "code": "C38216",
                                    "display": "RESPIRATORY (INHALATION)"
                                }
                            ],
                            "text": "RESPIRATORY (INHALATION)"
                        },
                        "doseQuantity": {
                            "value": 0.09,
                            "units": "mg/actuat",
                            "code": "mg/actuat",
                            "system": "http://unitsofmeasure.org"
                        },
                        "timingSchedule": {
                            "event": [
                                {
                                    "start": "2012-08-06"
                                }
                            ],
                            "repeat": {
                                "frequency": 1,
                                "duration": 12,
                                "units": "h",
                                "end": "2012-08-13"
                            }
                        },
                        "asNeededCodeableConcept": {
                            "coding": [
                                {
                                    "system": "http://snomed.info/sct",
                                    "code": "56018004",
                                    "display": "Wheezing"
                                }
                            ],
                            "text": "Wheezing"
                        }
                    }
                ],
                "text": {
                    "status": "generated",
                    "div": "Albuterol 0.09 MG/ACTUAT inhalant solution"
                },
                "contained": [
                    {
                        "id": "med",
                        "resourceType": "Medication",
                        "name": "Albuterol 0.09 MG/ACTUAT inhalant solution",
                        "code": {
                            "coding": [
                                {
                                    "system": "http://www.nlm.nih.gov/research/umls/rxnorm",
                                    "code": "573621",
                                    "display": "Albuterol 0.09 MG/ACTUAT inhalant solution"
                                }
                            ],
                            "text": "Albuterol 0.09 MG/ACTUAT inhalant solution"
                        }
                    }
                ],
                "medication": {
                    "reference": "#med",
                    "display": "Albuterol 0.09 MG/ACTUAT inhalant solution"
                }
            }
        },
        {
            "id": "MedicationAdministration/4a7157b7-9b08-49d8-bbb7-894a82fe6e3f",
            "content": {
                "resourceType": "MedicationAdministration",
                "status": "completed",
                "practitioner": {
                    "reference": "Practitioner/unknown",
                    "display": "Unknown"
                },
                "whenGiven": {
                    "start": "2012-08-06",
                    "end": "2012-08-13"
                },
                "dosage": [
                    {
                        "route": {
                            "coding": [
                                {
                                    "system": "urn:oid:2.16.840.1.113883.3.26.1.1",
                                    "code": "C38216",
                                    "display": "RESPIRATORY (INHALATION)"
                                }
                            ],
                            "text": "RESPIRATORY (INHALATION)"
                        },
                        "quantity": {
                            "value": 0.09,
                            "units": "mg/actuat",
                            "code": "mg/actuat",
                            "system": "http://unitsofmeasure.org"
                        },
                        "timingPeriod": {
                            "start": "2012-08-06",
                            "end": "2012-08-13"
                        },
                        "asNeededCodeableConcept": {
                            "coding": [
                                {
                                    "system": "http://snomed.info/sct",
                                    "code": "56018004",
                                    "display": "Wheezing"
                                }
                            ],
                            "text": "Wheezing"
                        }
                    }
                ],
                "prescription": {
                    "reference": "MedicationPrescription/1482de13-f9f2-4ddf-81c1-e69ef9f677bd",
                    "display": "Albuterol 0.09 MG/ACTUAT inhalant solution"
                },
                "contained": [
                    {
                        "id": "med",
                        "resourceType": "Medication",
                        "name": "Albuterol 0.09 MG/ACTUAT inhalant solution",
                        "code": {
                            "coding": [
                                {
                                    "system": "http://www.nlm.nih.gov/research/umls/rxnorm",
                                    "code": "573621",
                                    "display": "Albuterol 0.09 MG/ACTUAT inhalant solution"
                                }
                            ],
                            "text": "Albuterol 0.09 MG/ACTUAT inhalant solution"
                        }
                    }
                ],
                "medication": {
                    "reference": "#med",
                    "display": "Albuterol 0.09 MG/ACTUAT inhalant solution"
                }
            }
        }
    ]
}