{
    "resourceType": "Bundle",
    "totalResults": 17,
    "entry": [
        {
            "id": "Patient/some-id-here-1987",
            "content": {
                "resourceType": "Patient",
                "identifier": [
                    {
                        "system": "http://www.midea-tecg.com",
                        "value": "JOE_DOE_IDENTIFIER"
                    }
                ],
                "name": [
                    {
                        "family": [
                            "DOE"
                        ],
                        "given": [
                            "JOE"
                        ]
                    }
                ]
            }
        },
        {
            "id": "AdverseReaction/617eb3ea-432b-434a-85f5-f1bb4e5ae148",
            "content": {
                "resourceType": "AdverseReaction",
                "symptom": [
                    {
                        "code": {
                            "coding": [
                                {
                                    "system": "http://snomed.info/sct",
                                    "code": "247472004",
                                    "display": "Hives"
                                }
                            ],
                            "text": "Hives"
                        }
                    }
                ],
                "didNotOccurFlag": false,
                "subject": {
                    "reference": "Patient/some-id-here-1987",
                    "display": "DOE, JOE"
                }
            }
        },
        {
            "id": "AllergyIntolerance/38a6d112-2ec7-41b0-ad27-103fdca38e8c",
            "content": {
                "resourceType": "AllergyIntolerance",
                "criticality": "medium",
                "sensitivityType": "allergy",
                "recordedDate": "2009-09-02",
                "status": "confirmed",
                "contained": [
                    {
                        "id": "allergen",
                        "resourceType": "Substance",
                        "type": {
                            "coding": [
                                {
                                    "system": "http://www.nlm.nih.gov/research/umls/rxnorm",
                                    "code": "314422",
                                    "display": "ALLERGENIC EXTRACT, PENICILLIN"
                                }
                            ],
                            "text": "ALLERGENIC EXTRACT, PENICILLIN"
                        }
                    }
                ],
                "substance": {
                    "reference": "#allergen",
                    "display": "ALLERGENIC EXTRACT, PENICILLIN"
                },
                "reaction": [
                    {
                        "reference": "AdverseReaction/617eb3ea-432b-434a-85f5-f1bb4e5ae148",
                        "display": "Hives"
                    }
                ],
                "subject": {
                    "reference": "Patient/some-id-here-1987",
                    "display": "DOE, JOE"
                }
            }
        },
        {
            "id": "AdverseReaction/51b44ad9-70a6-4f42-820d-ddee419a6225",
            "content": {
                "resourceType": "AdverseReaction",
                "symptom": [
                    {
                        "code": {
                            "coding": [
                                {
                                    "system": "http://snomed.info/sct",
                                    "code": "56018004",
                                    "display": "Wheezing"
                                }
                            ],
                            "text": "Wheezing"
                        }
                    }
                ],
                "didNotOccurFlag": false,
                "subject": {
                    "reference": "Patient/some-id-here-1987",
                    "display": "DOE, JOE"
                }
            }
        },
        {
            "id": "AllergyIntolerance/e43b3b16-a8d6-40c0-8b90-08a00b20d87e",
            "content": {
                "resourceType": "AllergyIntolerance",
                "criticality": "medium",
                "sensitivityType": "allergy",
                "recordedDate": "2009-09-02",
                "status": "confirmed",
                "contained": [
                    {
                        "id": "allergen",
                        "resourceType": "Substance",
                        "type": {
                            "coding": [
                                {
                                    "system": "http://www.nlm.nih.gov/research/umls/rxnorm",
                                    "code": "1191",
                                    "display": "ASPIRIN"
                                }
                            ],
                            "text": "ASPIRIN"
                        }
                    }
                ],
                "substance": {
                    "reference": "#allergen",
                    "display": "ASPIRIN"
                },
                "reaction": [
                    {
                        "reference": "AdverseReaction/51b44ad9-70a6-4f42-820d-ddee419a6225",
                        "display": "Wheezing"
                    }
                ],
                "subject": {
                    "reference": "Patient/some-id-here-1987",
                    "display": "DOE, JOE"
                }
            }
        },
        {
            "id": "AdverseReaction/fd81a9ec-36f0-4aaa-8567-c5fab34e0053",
            "content": {
                "resourceType": "AdverseReaction",
                "symptom": [
                    {
                        "code": {
                            "coding": [
                                {
                                    "system": "http://snomed.info/sct",
                                    "code": "73879007",
                                    "display": "Nausea"
                                }
                            ],
                            "text": "Nausea"
                        }
                    }
                ],
                "didNotOccurFlag": false,
                "subject": {
                    "reference": "Patient/some-id-here-1987",
                    "display": "DOE, JOE"
                }
            }
        },
        {
            "id": "AllergyIntolerance/2ae6e33c-bf09-4fd6-928d-7f3a306ea6da",
            "content": {
                "resourceType": "AllergyIntolerance",
                "criticality": "medium",
                "sensitivityType": "allergy",
                "recordedDate": "2009-09-02",
                "status": "confirmed",
                "contained": [
                    {
                        "id": "allergen",
                        "resourceType": "Substance",
                        "type": {
                            "coding": [
                                {
                                    "system": "http://www.nlm.nih.gov/research/umls/rxnorm",
                                    "code": "2670",
                                    "display": "Codeine"
                                }
                            ],
                            "text": "Codeine"
                        }
                    }
                ],
                "substance": {
                    "reference": "#allergen",
                    "display": "Codeine"
                },
                "reaction": [
                    {
                        "reference": "AdverseReaction/fd81a9ec-36f0-4aaa-8567-c5fab34e0053",
                        "display": "Nausea"
                    }
                ],
                "subject": {
                    "reference": "Patient/some-id-here-1987",
                    "display": "DOE, JOE"
                }
            }
        },
        {
            "id": "Observation/5e568b6e-7ce3-4683-8906-2853752caf25",
            "content": {
                "resourceType": "Observation",
                "name": {
                    "coding": [
                        {
                            "system": "http://loinc.org",
                            "code": "8302-2",
                            "display": "Height"
                        }
                    ],
                    "text": "Height"
                },
                "valueQuantity": {
                    "value": 177,
                    "units": "cm",
                    "code": "cm",
                    "system": "http://unitsofmeasure.org"
                },
                "issued": "1999-11-14",
                "status": "final",
                "reliability": "ok",
                "extension": [
                    {
                        "url": "http://amida.com/fhir/Profile/extensions#observation-type",
                        "valueCoding": {
                            "code": "8716-3",
                            "display": "Vital signs",
                            "system": "http://loinc.org"
                        }
                    }
                ],
                "interpretation": {
                    "coding": [
                        {
                            "system": "http://hl7.org/fhir/v2/0078",
                            "code": "N",
                            "display": "Normal"
                        }
                    ],
                    "text": "Normal"
                },
                "subject": {
                    "reference": "Patient/some-id-here-1987",
                    "display": "DOE, JOE"
                }
            }
        },
        {
            "id": "Observation/9600ecee-6369-4afe-afa9-57919402a9a0",
            "content": {
                "resourceType": "Observation",
                "name": {
                    "coding": [
                        {
                            "system": "http://loinc.org",
                            "code": "3141-9",
                            "display": "Patient Body Weight - Measured"
                        }
                    ],
                    "text": "Patient Body Weight - Measured"
                },
                "valueQuantity": {
                    "value": 86,
                    "units": "kg",
                    "code": "kg",
                    "system": "http://unitsofmeasure.org"
                },
                "issued": "1999-11-14",
                "status": "final",
                "reliability": "ok",
                "extension": [
                    {
                        "url": "http://amida.com/fhir/Profile/extensions#observation-type",
                        "valueCoding": {
                            "code": "8716-3",
                            "display": "Vital signs",
                            "system": "http://loinc.org"
                        }
                    }
                ],
                "interpretation": {
                    "coding": [
                        {
                            "system": "http://hl7.org/fhir/v2/0078",
                            "code": "N",
                            "display": "Normal"
                        }
                    ],
                    "text": "Normal"
                },
                "subject": {
                    "reference": "Patient/some-id-here-1987",
                    "display": "DOE, JOE"
                }
            }
        },
        {
            "id": "Observation/6964661b-6244-435b-b0c8-9db21d35c478",
            "content": {
                "resourceType": "Observation",
                "name": {
                    "coding": [
                        {
                            "system": "http://loinc.org",
                            "code": "8480-6",
                            "display": "Intravascular Systolic"
                        }
                    ],
                    "text": "Intravascular Systolic"
                },
                "valueQuantity": {
                    "value": 132,
                    "units": "mm[Hg]",
                    "code": "mm[Hg]",
                    "system": "http://unitsofmeasure.org"
                },
                "issued": "1999-11-14",
                "status": "final",
                "reliability": "ok",
                "extension": [
                    {
                        "url": "http://amida.com/fhir/Profile/extensions#observation-type",
                        "valueCoding": {
                            "code": "8716-3",
                            "display": "Vital signs",
                            "system": "http://loinc.org"
                        }
                    }
                ],
                "interpretation": {
                    "coding": [
                        {
                            "system": "http://hl7.org/fhir/v2/0078",
                            "code": "N",
                            "display": "Normal"
                        }
                    ],
                    "text": "Normal"
                },
                "subject": {
                    "reference": "Patient/some-id-here-1987",
                    "display": "DOE, JOE"
                }
            }
        },
        {
            "id": "Observation/78c2c61b-af87-429e-ba04-ef449402a57d",
            "content": {
                "resourceType": "Observation",
                "name": {
                    "coding": [
                        {
                            "system": "http://loinc.org",
                            "code": "8302-2",
                            "display": "Height"
                        }
                    ],
                    "text": "Height"
                },
                "valueQuantity": {
                    "value": 177,
                    "units": "cm",
                    "code": "cm",
                    "system": "http://unitsofmeasure.org"
                },
                "issued": "2000-04-07",
                "status": "final",
                "reliability": "ok",
                "extension": [
                    {
                        "url": "http://amida.com/fhir/Profile/extensions#observation-type",
                        "valueCoding": {
                            "code": "8716-3",
                            "display": "Vital signs",
                            "system": "http://loinc.org"
                        }
                    }
                ],
                "interpretation": {
                    "coding": [
                        {
                            "system": "http://hl7.org/fhir/v2/0078",
                            "code": "N",
                            "display": "Normal"
                        }
                    ],
                    "text": "Normal"
                },
                "subject": {
                    "reference": "Patient/some-id-here-1987",
                    "display": "DOE, JOE"
                }
            }
        },
        {
            "id": "Observation/e11ca050-fa22-4c4d-8991-544e86041f76",
            "content": {
                "resourceType": "Observation",
                "name": {
                    "coding": [
                        {
                            "system": "http://loinc.org",
                            "code": "3141-9",
                            "display": "Patient Body Weight - Measured"
                        }
                    ],
                    "text": "Patient Body Weight - Measured"
                },
                "valueQuantity": {
                    "value": 88,
                    "units": "kg",
                    "code": "kg",
                    "system": "http://unitsofmeasure.org"
                },
                "issued": "2000-04-07",
                "status": "final",
                "reliability": "ok",
                "extension": [
                    {
                        "url": "http://amida.com/fhir/Profile/extensions#observation-type",
                        "valueCoding": {
                            "code": "8716-3",
                            "display": "Vital signs",
                            "system": "http://loinc.org"
                        }
                    }
                ],
                "interpretation": {
                    "coding": [
                        {
                            "system": "http://hl7.org/fhir/v2/0078",
                            "code": "N",
                            "display": "Normal"
                        }
                    ],
                    "text": "Normal"
                },
                "subject": {
                    "reference": "Patient/some-id-here-1987",
                    "display": "DOE, JOE"
                }
            }
        },
        {
            "id": "Observation/c935b966-93c3-4679-a245-978aaa79a6d0",
            "content": {
                "resourceType": "Observation",
                "name": {
                    "coding": [
                        {
                            "system": "http://loinc.org",
                            "code": "8480-6",
                            "display": "Intravascular Systolic"
                        }
                    ],
                    "text": "Intravascular Systolic"
                },
                "valueQuantity": {
                    "value": 145,
                    "units": "mm[Hg]",
                    "code": "mm[Hg]",
                    "system": "http://unitsofmeasure.org"
                },
                "issued": "2000-04-07",
                "status": "final",
                "reliability": "ok",
                "extension": [
                    {
                        "url": "http://amida.com/fhir/Profile/extensions#observation-type",
                        "valueCoding": {
                            "code": "8716-3",
                            "display": "Vital signs",
                            "system": "http://loinc.org"
                        }
                    }
                ],
                "interpretation": {
                    "coding": [
                        {
                            "system": "http://hl7.org/fhir/v2/0078",
                            "code": "N",
                            "display": "Normal"
                        }
                    ],
                    "text": "Normal"
                },
                "subject": {
                    "reference": "Patient/some-id-here-1987",
                    "display": "DOE, JOE"
                }
            }
        },
        {
            "id": "Observation/d91a9f5c-2ae1-4c84-aef5-8a562d1b61fb",
            "content": {
                "resourceType": "Observation",
                "name": {
                    "coding": [
                        {
                            "system": "http://loinc.org",
                            "code": "55418-8",
                            "display": "Weight and Height tracking panel"
                        }
                    ],
                    "text": "Weight and Height tracking panel"
                },
                "issued": "1999-11-14",
                "status": "final",
                "reliability": "ok",
                "extension": [
                    {
                        "url": "http://amida.com/fhir/Profile/extensions#observation-type",
                        "valueCoding": {
                            "code": "8716-3",
                            "display": "Vital signs",
                            "system": "http://loinc.org"
                        }
                    }
                ],
                "related": [
                    {
                        "type": "has-component",
                        "target": {
                            "reference": "Observation/5e568b6e-7ce3-4683-8906-2853752caf25"
                        }
                    },
                    {
                        "type": "has-component",
                        "target": {
                            "reference": "Observation/9600ecee-6369-4afe-afa9-57919402a9a0"
                        }
                    }
                ],
                "subject": {
                    "reference": "Patient/some-id-here-1987",
                    "display": "DOE, JOE"
                }
            }
        },
        {
            "id": "Observation/1eb9469a-d357-4830-9df9-01aa4aa1fe2c",
            "content": {
                "resourceType": "Observation",
                "name": {
                    "coding": [
                        {
                            "system": "http://loinc.org",
                            "code": "55418-8",
                            "display": "Weight and Height tracking panel"
                        }
                    ],
                    "text": "Weight and Height tracking panel"
                },
                "issued": "2000-04-07",
                "status": "final",
                "reliability": "ok",
                "extension": [
                    {
                        "url": "http://amida.com/fhir/Profile/extensions#observation-type",
                        "valueCoding": {
                            "code": "8716-3",
                            "display": "Vital signs",
                            "system": "http://loinc.org"
                        }
                    }
                ],
                "related": [
                    {
                        "type": "has-component",
                        "target": {
                            "reference": "Observation/78c2c61b-af87-429e-ba04-ef449402a57d"
                        }
                    },
                    {
                        "type": "has-component",
                        "target": {
                            "reference": "Observation/e11ca050-fa22-4c4d-8991-544e86041f76"
                        }
                    }
                ],
                "subject": {
                    "reference": "Patient/some-id-here-1987",
                    "display": "DOE, JOE"
                }
            }
        },
        {
            "id": "Observation/68d9dfe6-8aa2-4943-af98-5215823d28eb",
            "content": {
                "resourceType": "Observation",
                "name": {
                    "coding": [
                        {
                            "system": "http://loinc.org",
                            "code": "35094-2",
                            "display": "Blood pressure panel"
                        }
                    ],
                    "text": "Blood pressure panel"
                },
                "issued": "1999-11-14",
                "status": "final",
                "reliability": "ok",
                "extension": [
                    {
                        "url": "http://amida.com/fhir/Profile/extensions#observation-type",
                        "valueCoding": {
                            "code": "8716-3",
                            "display": "Vital signs",
                            "system": "http://loinc.org"
                        }
                    }
                ],
                "related": [
                    {
                        "type": "has-component",
                        "target": {
                            "reference": "Observation/6964661b-6244-435b-b0c8-9db21d35c478"
                        }
                    }
                ],
                "subject": {
                    "reference": "Patient/some-id-here-1987",
                    "display": "DOE, JOE"
                }
            }
        },
        {
            "id": "Observation/b0d47af7-b310-4d25-8bdd-17c72ebd1a45",
            "content": {
                "resourceType": "Observation",
                "name": {
                    "coding": [
                        {
                            "system": "http://loinc.org",
                            "code": "35094-2",
                            "display": "Blood pressure panel"
                        }
                    ],
                    "text": "Blood pressure panel"
                },
                "issued": "2000-04-07",
                "status": "final",
                "reliability": "ok",
                "extension": [
                    {
                        "url": "http://amida.com/fhir/Profile/extensions#observation-type",
                        "valueCoding": {
                            "code": "8716-3",
                            "display": "Vital signs",
                            "system": "http://loinc.org"
                        }
                    }
                ],
                "related": [
                    {
                        "type": "has-component",
                        "target": {
                            "reference": "Observation/c935b966-93c3-4679-a245-978aaa79a6d0"
                        }
                    }
                ],
                "subject": {
                    "reference": "Patient/some-id-here-1987",
                    "display": "DOE, JOE"
                }
            }
        }
    ]
}