{
    "resourceType": "Bundle",
    "totalResults": 22,
    "entry": [
        {
            "id": "AdverseReaction/81c74b92-4fff-4867-a26b-69695cf15f28",
            "content": {
                "resourceType": "AdverseReaction",
                "symptom": [
                    {
                        "code": {
                            "coding": [
                                {
                                    "system": "http://snomed.info/sct",
                                    "code": "247472004",
                                    "display": "Hives"
                                }
                            ],
                            "text": "Hives"
                        }
                    }
                ],
                "didNotOccurFlag": false
            }
        },
        {
            "id": "AllergyIntolerance/547a59f4-cf89-4390-9d03-d4778800cf0f",
            "content": {
                "resourceType": "AllergyIntolerance",
                "criticality": "medium",
                "sensitivityType": "allergy",
                "recordedDate": "2009-09-02",
                "status": "confirmed",
                "contained": [
                    {
                        "id": "allergen",
                        "resourceType": "Substance",
                        "type": {
                            "coding": [
                                {
                                    "system": "http://www.nlm.nih.gov/research/umls/rxnorm",
                                    "code": "314422",
                                    "display": "ALLERGENIC EXTRACT, PENICILLIN"
                                }
                            ],
                            "text": "ALLERGENIC EXTRACT, PENICILLIN"
                        }
                    }
                ],
                "substance": {
                    "reference": "#allergen",
                    "display": "ALLERGENIC EXTRACT, PENICILLIN"
                },
                "reaction": [
                    {
                        "reference": "AdverseReaction/81c74b92-4fff-4867-a26b-69695cf15f28",
                        "display": "Hives"
                    }
                ]
            }
        },
        {
            "id": "AdverseReaction/53f3d76e-4cd8-414c-baf8-775f7ebd83f0",
            "content": {
                "resourceType": "AdverseReaction",
                "symptom": [
                    {
                        "code": {
                            "coding": [
                                {
                                    "system": "http://snomed.info/sct",
                                    "code": "56018004",
                                    "display": "Wheezing"
                                }
                            ],
                            "text": "Wheezing"
                        }
                    }
                ],
                "didNotOccurFlag": false
            }
        },
        {
            "id": "AllergyIntolerance/4b4e22a0-6e31-4dde-aeee-792fdad00cb8",
            "content": {
                "resourceType": "AllergyIntolerance",
                "criticality": "medium",
                "sensitivityType": "allergy",
                "recordedDate": "2009-09-02",
                "status": "confirmed",
                "contained": [
                    {
                        "id": "allergen",
                        "resourceType": "Substance",
                        "type": {
                            "coding": [
                                {
                                    "system": "http://www.nlm.nih.gov/research/umls/rxnorm",
                                    "code": "1191",
                                    "display": "ASPIRIN"
                                }
                            ],
                            "text": "ASPIRIN"
                        }
                    }
                ],
                "substance": {
                    "reference": "#allergen",
                    "display": "ASPIRIN"
                },
                "reaction": [
                    {
                        "reference": "AdverseReaction/53f3d76e-4cd8-414c-baf8-775f7ebd83f0",
                        "display": "Wheezing"
                    }
                ]
            }
        },
        {
            "id": "AdverseReaction/63eef8dc-bbc3-49fa-9e51-cb5a43dac54e",
            "content": {
                "resourceType": "AdverseReaction",
                "symptom": [
                    {
                        "code": {
                            "coding": [
                                {
                                    "system": "http://snomed.info/sct",
                                    "code": "73879007",
                                    "display": "Nausea"
                                }
                            ],
                            "text": "Nausea"
                        }
                    }
                ],
                "didNotOccurFlag": false
            }
        },
        {
            "id": "AllergyIntolerance/3c04dbac-b376-48d1-836a-1adf302e8caa",
            "content": {
                "resourceType": "AllergyIntolerance",
                "criticality": "medium",
                "sensitivityType": "allergy",
                "recordedDate": "2009-09-02",
                "status": "confirmed",
                "contained": [
                    {
                        "id": "allergen",
                        "resourceType": "Substance",
                        "type": {
                            "coding": [
                                {
                                    "system": "http://www.nlm.nih.gov/research/umls/rxnorm",
                                    "code": "2670",
                                    "display": "Codeine"
                                }
                            ],
                            "text": "Codeine"
                        }
                    }
                ],
                "substance": {
                    "reference": "#allergen",
                    "display": "Codeine"
                },
                "reaction": [
                    {
                        "reference": "AdverseReaction/63eef8dc-bbc3-49fa-9e51-cb5a43dac54e",
                        "display": "Nausea"
                    }
                ]
            }
        },
        {
            "id": "Observation/5272f7fd-f2cb-41dd-b30e-61f89de029bd",
            "content": {
                "resourceType": "Observation",
                "name": {
                    "coding": [
                        {
                            "system": "http://loinc.org",
                            "code": "8302-2",
                            "display": "Height"
                        }
                    ],
                    "text": "Height"
                },
                "valueQuantity": {
                    "value": 177,
                    "units": "cm",
                    "code": "cm",
                    "system": "http://unitsofmeasure.org"
                },
                "issued": "1999-11-14",
                "status": "final",
                "reliability": "ok",
                "extension": [
                    {
                        "url": "http://amida.com/fhir/Profile/extensions#observation-type",
                        "valueCoding": {
                            "code": "8716-3",
                            "display": "Vital signs",
                            "system": "http://loinc.org"
                        }
                    }
                ],
                "interpretation": {
                    "coding": [
                        {
                            "system": "http://hl7.org/fhir/v2/0078",
                            "code": "N",
                            "display": "Normal"
                        }
                    ],
                    "text": "Normal"
                }
            }
        },
        {
            "id": "Observation/a17a7fc7-7b11-457a-ba04-f9655b228729",
            "content": {
                "resourceType": "Observation",
                "name": {
                    "coding": [
                        {
                            "system": "http://loinc.org",
                            "code": "3141-9",
                            "display": "Patient Body Weight - Measured"
                        }
                    ],
                    "text": "Patient Body Weight - Measured"
                },
                "valueQuantity": {
                    "value": 86,
                    "units": "kg",
                    "code": "kg",
                    "system": "http://unitsofmeasure.org"
                },
                "issued": "1999-11-14",
                "status": "final",
                "reliability": "ok",
                "extension": [
                    {
                        "url": "http://amida.com/fhir/Profile/extensions#observation-type",
                        "valueCoding": {
                            "code": "8716-3",
                            "display": "Vital signs",
                            "system": "http://loinc.org"
                        }
                    }
                ],
                "interpretation": {
                    "coding": [
                        {
                            "system": "http://hl7.org/fhir/v2/0078",
                            "code": "N",
                            "display": "Normal"
                        }
                    ],
                    "text": "Normal"
                }
            }
        },
        {
            "id": "Observation/5f58c475-834b-46c0-959a-7c2a9b3d47ee",
            "content": {
                "resourceType": "Observation",
                "name": {
                    "coding": [
                        {
                            "system": "http://loinc.org",
                            "code": "8480-6",
                            "display": "Intravascular Systolic"
                        }
                    ],
                    "text": "Intravascular Systolic"
                },
                "valueQuantity": {
                    "value": 132,
                    "units": "mm[Hg]",
                    "code": "mm[Hg]",
                    "system": "http://unitsofmeasure.org"
                },
                "issued": "1999-11-14",
                "status": "final",
                "reliability": "ok",
                "extension": [
                    {
                        "url": "http://amida.com/fhir/Profile/extensions#observation-type",
                        "valueCoding": {
                            "code": "8716-3",
                            "display": "Vital signs",
                            "system": "http://loinc.org"
                        }
                    }
                ],
                "interpretation": {
                    "coding": [
                        {
                            "system": "http://hl7.org/fhir/v2/0078",
                            "code": "N",
                            "display": "Normal"
                        }
                    ],
                    "text": "Normal"
                }
            }
        },
        {
            "id": "Observation/60a100d3-bc35-4f4e-8a41-a92d6a6bed41",
            "content": {
                "resourceType": "Observation",
                "name": {
                    "coding": [
                        {
                            "system": "http://loinc.org",
                            "code": "8302-2",
                            "display": "Height"
                        }
                    ],
                    "text": "Height"
                },
                "valueQuantity": {
                    "value": 177,
                    "units": "cm",
                    "code": "cm",
                    "system": "http://unitsofmeasure.org"
                },
                "issued": "2000-04-07",
                "status": "final",
                "reliability": "ok",
                "extension": [
                    {
                        "url": "http://amida.com/fhir/Profile/extensions#observation-type",
                        "valueCoding": {
                            "code": "8716-3",
                            "display": "Vital signs",
                            "system": "http://loinc.org"
                        }
                    }
                ],
                "interpretation": {
                    "coding": [
                        {
                            "system": "http://hl7.org/fhir/v2/0078",
                            "code": "N",
                            "display": "Normal"
                        }
                    ],
                    "text": "Normal"
                }
            }
        },
        {
            "id": "Observation/b18d4cfd-de94-4003-9663-291ccb0f6aa0",
            "content": {
                "resourceType": "Observation",
                "name": {
                    "coding": [
                        {
                            "system": "http://loinc.org",
                            "code": "3141-9",
                            "display": "Patient Body Weight - Measured"
                        }
                    ],
                    "text": "Patient Body Weight - Measured"
                },
                "valueQuantity": {
                    "value": 88,
                    "units": "kg",
                    "code": "kg",
                    "system": "http://unitsofmeasure.org"
                },
                "issued": "2000-04-07",
                "status": "final",
                "reliability": "ok",
                "extension": [
                    {
                        "url": "http://amida.com/fhir/Profile/extensions#observation-type",
                        "valueCoding": {
                            "code": "8716-3",
                            "display": "Vital signs",
                            "system": "http://loinc.org"
                        }
                    }
                ],
                "interpretation": {
                    "coding": [
                        {
                            "system": "http://hl7.org/fhir/v2/0078",
                            "code": "N",
                            "display": "Normal"
                        }
                    ],
                    "text": "Normal"
                }
            }
        },
        {
            "id": "Observation/95d208f1-5542-4fec-8d17-ae36401e551e",
            "content": {
                "resourceType": "Observation",
                "name": {
                    "coding": [
                        {
                            "system": "http://loinc.org",
                            "code": "8480-6",
                            "display": "Intravascular Systolic"
                        }
                    ],
                    "text": "Intravascular Systolic"
                },
                "valueQuantity": {
                    "value": 145,
                    "units": "mm[Hg]",
                    "code": "mm[Hg]",
                    "system": "http://unitsofmeasure.org"
                },
                "issued": "2000-04-07",
                "status": "final",
                "reliability": "ok",
                "extension": [
                    {
                        "url": "http://amida.com/fhir/Profile/extensions#observation-type",
                        "valueCoding": {
                            "code": "8716-3",
                            "display": "Vital signs",
                            "system": "http://loinc.org"
                        }
                    }
                ],
                "interpretation": {
                    "coding": [
                        {
                            "system": "http://hl7.org/fhir/v2/0078",
                            "code": "N",
                            "display": "Normal"
                        }
                    ],
                    "text": "Normal"
                }
            }
        },
        {
            "id": "Observation/888f4469-3edf-4b10-8b9d-9da57d691365",
            "content": {
                "resourceType": "Observation",
                "name": {
                    "coding": [
                        {
                            "system": "http://loinc.org",
                            "code": "55418-8",
                            "display": "Weight and Height tracking panel"
                        }
                    ],
                    "text": "Weight and Height tracking panel"
                },
                "issued": "1999-11-14",
                "status": "final",
                "reliability": "ok",
                "extension": [
                    {
                        "url": "http://amida.com/fhir/Profile/extensions#observation-type",
                        "valueCoding": {
                            "code": "8716-3",
                            "display": "Vital signs",
                            "system": "http://loinc.org"
                        }
                    }
                ],
                "related": [
                    {
                        "type": "has-component",
                        "target": {
                            "reference": "Observation/5272f7fd-f2cb-41dd-b30e-61f89de029bd"
                        }
                    },
                    {
                        "type": "has-component",
                        "target": {
                            "reference": "Observation/a17a7fc7-7b11-457a-ba04-f9655b228729"
                        }
                    }
                ]
            }
        },
        {
            "id": "Observation/92922c3c-824e-4502-80a6-9bbb49c21a4c",
            "content": {
                "resourceType": "Observation",
                "name": {
                    "coding": [
                        {
                            "system": "http://loinc.org",
                            "code": "55418-8",
                            "display": "Weight and Height tracking panel"
                        }
                    ],
                    "text": "Weight and Height tracking panel"
                },
                "issued": "2000-04-07",
                "status": "final",
                "reliability": "ok",
                "extension": [
                    {
                        "url": "http://amida.com/fhir/Profile/extensions#observation-type",
                        "valueCoding": {
                            "code": "8716-3",
                            "display": "Vital signs",
                            "system": "http://loinc.org"
                        }
                    }
                ],
                "related": [
                    {
                        "type": "has-component",
                        "target": {
                            "reference": "Observation/60a100d3-bc35-4f4e-8a41-a92d6a6bed41"
                        }
                    },
                    {
                        "type": "has-component",
                        "target": {
                            "reference": "Observation/b18d4cfd-de94-4003-9663-291ccb0f6aa0"
                        }
                    }
                ]
            }
        },
        {
            "id": "Observation/a46d5c3a-c0b9-468a-8e35-7a1b12120742",
            "content": {
                "resourceType": "Observation",
                "name": {
                    "coding": [
                        {
                            "system": "http://loinc.org",
                            "code": "35094-2",
                            "display": "Blood pressure panel"
                        }
                    ],
                    "text": "Blood pressure panel"
                },
                "issued": "1999-11-14",
                "status": "final",
                "reliability": "ok",
                "extension": [
                    {
                        "url": "http://amida.com/fhir/Profile/extensions#observation-type",
                        "valueCoding": {
                            "code": "8716-3",
                            "display": "Vital signs",
                            "system": "http://loinc.org"
                        }
                    }
                ],
                "related": [
                    {
                        "type": "has-component",
                        "target": {
                            "reference": "Observation/5f58c475-834b-46c0-959a-7c2a9b3d47ee"
                        }
                    }
                ]
            }
        },
        {
            "id": "Observation/534ece5c-fa5f-472a-934d-1d9daf51f11e",
            "content": {
                "resourceType": "Observation",
                "name": {
                    "coding": [
                        {
                            "system": "http://loinc.org",
                            "code": "35094-2",
                            "display": "Blood pressure panel"
                        }
                    ],
                    "text": "Blood pressure panel"
                },
                "issued": "2000-04-07",
                "status": "final",
                "reliability": "ok",
                "extension": [
                    {
                        "url": "http://amida.com/fhir/Profile/extensions#observation-type",
                        "valueCoding": {
                            "code": "8716-3",
                            "display": "Vital signs",
                            "system": "http://loinc.org"
                        }
                    }
                ],
                "related": [
                    {
                        "type": "has-component",
                        "target": {
                            "reference": "Observation/95d208f1-5542-4fec-8d17-ae36401e551e"
                        }
                    }
                ]
            }
        },
        {
            "id": "Observation/8549a4ca-bb36-40ee-86b0-a327ca139358",
            "content": {
                "resourceType": "Observation",
                "name": {
                    "coding": [
                        {
                            "system": "http://loinc.org",
                            "code": "30313-1",
                            "display": "HGB"
                        }
                    ],
                    "text": "HGB"
                },
                "valueQuantity": {
                    "value": 13.2,
                    "units": "g/dl",
                    "code": "g/dl",
                    "system": "http://unitsofmeasure.org"
                },
                "issued": "2000-03-23",
                "status": "final",
                "reliability": "ok",
                "extension": [
                    {
                        "url": "http://amida.com/fhir/Profile/extensions#observation-type",
                        "valueCoding": {
                            "code": "11502-2",
                            "display": "Laboratory report",
                            "system": "http://loinc.org"
                        }
                    }
                ],
                "interpretation": {
                    "coding": [
                        {
                            "system": "http://hl7.org/fhir/v2/0078",
                            "code": "N",
                            "display": "Normal"
                        }
                    ],
                    "text": "Normal"
                },
                "referenceRange": [
                    {
                        "meaning": {
                            "coding": [
                                {
                                    "system": "http://hl7.org/fhir/referencerange-meaning",
                                    "code": "normal",
                                    "display": "Normal Range"
                                }
                            ],
                            "text": "Normal Range"
                        },
                        "text": "M 13-18 g/dl; F 12-16 g/dl"
                    }
                ]
            }
        },
        {
            "id": "Observation/b1586ed4-0040-4d6c-88b2-46f07c8df3c0",
            "content": {
                "resourceType": "Observation",
                "name": {
                    "coding": [
                        {
                            "system": "http://loinc.org",
                            "code": "33765-9",
                            "display": "WBC"
                        }
                    ],
                    "text": "WBC"
                },
                "valueQuantity": {
                    "value": 6.7,
                    "units": "10+3/ul",
                    "code": "10+3/ul",
                    "system": "http://unitsofmeasure.org"
                },
                "issued": "2000-03-23",
                "status": "final",
                "reliability": "ok",
                "extension": [
                    {
                        "url": "http://amida.com/fhir/Profile/extensions#observation-type",
                        "valueCoding": {
                            "code": "11502-2",
                            "display": "Laboratory report",
                            "system": "http://loinc.org"
                        }
                    }
                ],
                "interpretation": {
                    "coding": [
                        {
                            "system": "http://hl7.org/fhir/v2/0078",
                            "code": "N",
                            "display": "Normal"
                        }
                    ],
                    "text": "Normal"
                },
                "referenceRange": [
                    {
                        "meaning": {
                            "coding": [
                                {
                                    "system": "http://hl7.org/fhir/referencerange-meaning",
                                    "code": "normal",
                                    "display": "Normal Range"
                                }
                            ],
                            "text": "Normal Range"
                        },
                        "low": {
                            "value": 4.3,
                            "units": "10+3/ul",
                            "code": "10+3/ul",
                            "system": "http://unitsofmeasure.org"
                        },
                        "high": {
                            "value": 10.8,
                            "units": "10+3/ul",
                            "code": "10+3/ul",
                            "system": "http://unitsofmeasure.org"
                        }
                    }
                ]
            }
        },
        {
            "id": "Observation/8ec809bb-12d4-4313-b520-d1054359586c",
            "content": {
                "resourceType": "Observation",
                "name": {
                    "coding": [
                        {
                            "system": "http://loinc.org",
                            "code": "26515-7",
                            "display": "PLT"
                        }
                    ],
                    "text": "PLT"
                },
                "valueQuantity": {
                    "value": 123,
                    "units": "10+3/ul",
                    "code": "10+3/ul",
                    "system": "http://unitsofmeasure.org"
                },
                "issued": "2000-03-23",
                "status": "final",
                "reliability": "ok",
                "extension": [
                    {
                        "url": "http://amida.com/fhir/Profile/extensions#observation-type",
                        "valueCoding": {
                            "code": "11502-2",
                            "display": "Laboratory report",
                            "system": "http://loinc.org"
                        }
                    }
                ],
                "interpretation": {
                    "coding": [
                        {
                            "system": "http://hl7.org/fhir/v2/0078",
                            "code": "L",
                            "display": "Low"
                        }
                    ],
                    "text": "Low"
                },
                "referenceRange": [
                    {
                        "meaning": {
                            "coding": [
                                {
                                    "system": "http://hl7.org/fhir/referencerange-meaning",
                                    "code": "normal",
                                    "display": "Normal Range"
                                }
                            ],
                            "text": "Normal Range"
                        },
                        "low": {
                            "value": 150,
                            "units": "10+3/ul",
                            "code": "10+3/ul",
                            "system": "http://unitsofmeasure.org"
                        },
                        "high": {
                            "value": 350,
                            "units": "10+3/ul",
                            "code": "10+3/ul",
                            "system": "http://unitsofmeasure.org"
                        }
                    }
                ]
            }
        },
        {
            "id": "Observation/668cf919-ef67-42bb-a0bc-09e2a6ff6bd4",
            "content": {
                "resourceType": "Observation",
                "name": {
                    "coding": [
                        {
                            "system": "http://snomed.info/sct",
                            "code": "43789009",
                            "display": "CBC WO DIFFERENTIAL"
                        }
                    ],
                    "text": "CBC WO DIFFERENTIAL"
                },
                "status": "final",
                "reliability": "ok",
                "related": [
                    {
                        "type": "has-component",
                        "target": {
                            "reference": "Observation/8549a4ca-bb36-40ee-86b0-a327ca139358"
                        }
                    },
                    {
                        "type": "has-component",
                        "target": {
                            "reference": "Observation/b1586ed4-0040-4d6c-88b2-46f07c8df3c0"
                        }
                    },
                    {
                        "type": "has-component",
                        "target": {
                            "reference": "Observation/8ec809bb-12d4-4313-b520-d1054359586c"
                        }
                    }
                ],
                "extension": [
                    {
                        "url": "http://amida.com/fhir/Profile/extensions#observation-type",
                        "valueCoding": {
                            "code": "11502-2",
                            "display": "Laboratory report",
                            "system": "http://loinc.org"
                        }
                    }
                ]
            }
        },
        {
            "id": "MedicationPrescription/e4664d67-7dcb-48e2-8408-06249fc41d60",
            "content": {
                "resourceType": "MedicationPrescription",
                "status": "active",
                "dateWritten": "2011-03-01",
                "dosageInstruction": [
                    {
                        "route": {
                            "coding": [
                                {
                                    "system": "urn:oid:2.16.840.1.113883.3.26.1.1",
                                    "code": "C38216",
                                    "display": "RESPIRATORY (INHALATION)"
                                }
                            ],
                            "text": "RESPIRATORY (INHALATION)"
                        },
                        "doseQuantity": {
                            "value": 1
                        },
                        "timingSchedule": {
                            "event": [
                                {
                                    "start": "2011-03-01"
                                }
                            ],
                            "repeat": {
                                "frequency": 1,
                                "duration": 6,
                                "units": "h",
                                "end": "2012-03-01"
                            }
                        },
                        "asNeededCodeableConcept": {
                            "coding": [
                                {
                                    "system": "http://snomed.info/sct",
                                    "code": "56018004",
                                    "display": "Wheezing"
                                }
                            ],
                            "text": "Wheezing"
                        }
                    }
                ],
                "text": {
                    "status": "generated",
                    "div": "Proventil 0.09 MG/ACTUAT inhalant solution"
                },
                "contained": [
                    {
                        "id": "med",
                        "resourceType": "Medication",
                        "name": "Albuterol 0.09 MG/ACTUAT inhalant solution",
                        "code": {
                            "coding": [
                                {
                                    "system": "http://www.nlm.nih.gov/research/umls/rxnorm",
                                    "code": "329498",
                                    "display": "Albuterol 0.09 MG/ACTUAT inhalant solution"
                                }
                            ],
                            "text": "Albuterol 0.09 MG/ACTUAT inhalant solution"
                        }
                    }
                ],
                "medication": {
                    "reference": "#med",
                    "display": "Albuterol 0.09 MG/ACTUAT inhalant solution"
                }
            }
        },
        {
            "id": "MedicationAdministration/fafb3feb-b7c8-43bd-be08-5a754d1d4156",
            "content": {
                "resourceType": "MedicationAdministration",
                "status": "completed",
                "practitioner": {
                    "reference": "Practitioner/unknown",
                    "display": "Unknown"
                },
                "whenGiven": {
                    "start": "2011-03-01",
                    "end": "2012-03-01"
                },
                "dosage": [
                    {
                        "route": {
                            "coding": [
                                {
                                    "system": "urn:oid:2.16.840.1.113883.3.26.1.1",
                                    "code": "C38216",
                                    "display": "RESPIRATORY (INHALATION)"
                                }
                            ],
                            "text": "RESPIRATORY (INHALATION)"
                        },
                        "quantity": {
                            "value": 1
                        },
                        "timingPeriod": {
                            "start": "2011-03-01",
                            "end": "2012-03-01"
                        },
                        "asNeededCodeableConcept": {
                            "coding": [
                                {
                                    "system": "http://snomed.info/sct",
                                    "code": "56018004",
                                    "display": "Wheezing"
                                }
                            ],
                            "text": "Wheezing"
                        }
                    }
                ],
                "prescription": {
                    "reference": "MedicationPrescription/e4664d67-7dcb-48e2-8408-06249fc41d60",
                    "display": "Proventil 0.09 MG/ACTUAT inhalant solution"
                },
                "contained": [
                    {
                        "id": "med",
                        "resourceType": "Medication",
                        "name": "Albuterol 0.09 MG/ACTUAT inhalant solution",
                        "code": {
                            "coding": [
                                {
                                    "system": "http://www.nlm.nih.gov/research/umls/rxnorm",
                                    "code": "329498",
                                    "display": "Albuterol 0.09 MG/ACTUAT inhalant solution"
                                }
                            ],
                            "text": "Albuterol 0.09 MG/ACTUAT inhalant solution"
                        }
                    }
                ],
                "medication": {
                    "reference": "#med",
                    "display": "Albuterol 0.09 MG/ACTUAT inhalant solution"
                }
            }
        }
    ]
}