{
    "resourceType": "Bundle",
    "totalResults": 14,
    "entry": [
        {
            "id": "Observation/6b541bab-689d-4c85-a1e3-a8b07a8765f7",
            "content": {
                "resourceType": "Observation",
                "name": {
                    "coding": [
                        {
                            "system": "http://loinc.org",
                            "code": "8302-2",
                            "display": "Height"
                        }
                    ],
                    "text": "Height"
                },
                "valueQuantity": {
                    "value": 71,
                    "units": "[in_us]",
                    "code": "[in_us]",
                    "system": "http://unitsofmeasure.org"
                },
                "issued": "2014-05-15",
                "status": "final",
                "reliability": "ok",
                "extension": [
                    {
                        "url": "http://amida.com/fhir/Profile/extensions#observation-type",
                        "valueCoding": {
                            "code": "8716-3",
                            "display": "Vital signs",
                            "system": "http://loinc.org"
                        }
                    }
                ],
                "interpretation": {
                    "coding": [
                        {
                            "system": "http://hl7.org/fhir/v2/0078",
                            "code": "N",
                            "display": "Normal"
                        }
                    ],
                    "text": "Normal"
                }
            }
        },
        {
            "id": "Observation/da006082-d8a3-48c6-a1e0-ea6250580770",
            "content": {
                "resourceType": "Observation",
                "name": {
                    "coding": [
                        {
                            "system": "http://loinc.org",
                            "code": "3141-9",
                            "display": "Patient Body Weight - Measured"
                        }
                    ],
                    "text": "Patient Body Weight - Measured"
                },
                "valueQuantity": {
                    "value": 160,
                    "units": "[lb_av]",
                    "code": "[lb_av]",
                    "system": "http://unitsofmeasure.org"
                },
                "issued": "2014-05-15",
                "status": "final",
                "reliability": "ok",
                "extension": [
                    {
                        "url": "http://amida.com/fhir/Profile/extensions#observation-type",
                        "valueCoding": {
                            "code": "8716-3",
                            "display": "Vital signs",
                            "system": "http://loinc.org"
                        }
                    }
                ],
                "interpretation": {
                    "coding": [
                        {
                            "system": "http://hl7.org/fhir/v2/0078",
                            "code": "N",
                            "display": "Normal"
                        }
                    ],
                    "text": "Normal"
                }
            }
        },
        {
            "id": "Observation/78ad19f2-b1c0-48b5-9956-025e33271b49",
            "content": {
                "resourceType": "Observation",
                "name": {
                    "coding": [
                        {
                            "system": "http://loinc.org",
                            "code": "39156-5",
                            "display": "BMI (Body Mass Index)"
                        }
                    ],
                    "text": "BMI (Body Mass Index)"
                },
                "valueQuantity": {
                    "value": 22.32,
                    "units": "kg/m2",
                    "code": "kg/m2",
                    "system": "http://unitsofmeasure.org"
                },
                "issued": "2014-05-15",
                "status": "final",
                "reliability": "ok",
                "extension": [
                    {
                        "url": "http://amida.com/fhir/Profile/extensions#observation-type",
                        "valueCoding": {
                            "code": "8716-3",
                            "display": "Vital signs",
                            "system": "http://loinc.org"
                        }
                    }
                ],
                "interpretation": {
                    "coding": [
                        {
                            "system": "http://hl7.org/fhir/v2/0078",
                            "code": "N",
                            "display": "Normal"
                        }
                    ],
                    "text": "Normal"
                }
            }
        },
        {
            "id": "Observation/0e8f0d43-332b-437a-b81c-de61d69f13b3",
            "content": {
                "resourceType": "Observation",
                "name": {
                    "coding": [
                        {
                            "system": "http://loinc.org",
                            "code": "8480-6",
                            "display": "BP Systolic"
                        }
                    ],
                    "text": "BP Systolic"
                },
                "valueQuantity": {
                    "value": 120,
                    "units": "mm[Hg]",
                    "code": "mm[Hg]",
                    "system": "http://unitsofmeasure.org"
                },
                "issued": "2014-05-15",
                "status": "final",
                "reliability": "ok",
                "extension": [
                    {
                        "url": "http://amida.com/fhir/Profile/extensions#observation-type",
                        "valueCoding": {
                            "code": "8716-3",
                            "display": "Vital signs",
                            "system": "http://loinc.org"
                        }
                    }
                ],
                "interpretation": {
                    "coding": [
                        {
                            "system": "http://hl7.org/fhir/v2/0078",
                            "code": "N",
                            "display": "Normal"
                        }
                    ],
                    "text": "Normal"
                }
            }
        },
        {
            "id": "Observation/c6964dac-66ef-441b-bd09-a516b6cb28e2",
            "content": {
                "resourceType": "Observation",
                "name": {
                    "coding": [
                        {
                            "system": "http://loinc.org",
                            "code": "8462-4",
                            "display": "BP Diastolic"
                        }
                    ],
                    "text": "BP Diastolic"
                },
                "valueQuantity": {
                    "value": 0,
                    "units": "mm[Hg]",
                    "code": "mm[Hg]",
                    "system": "http://unitsofmeasure.org"
                },
                "issued": "2014-05-15",
                "status": "final",
                "reliability": "ok",
                "extension": [
                    {
                        "url": "http://amida.com/fhir/Profile/extensions#observation-type",
                        "valueCoding": {
                            "code": "8716-3",
                            "display": "Vital signs",
                            "system": "http://loinc.org"
                        }
                    }
                ],
                "interpretation": {
                    "coding": [
                        {
                            "system": "http://hl7.org/fhir/v2/0078",
                            "code": "N",
                            "display": "Normal"
                        }
                    ],
                    "text": "Normal"
                }
            }
        },
        {
            "id": "Observation/fc52b092-4fd1-42fa-ab80-793ef55192aa",
            "content": {
                "resourceType": "Observation",
                "name": {
                    "coding": [
                        {
                            "system": "http://loinc.org",
                            "code": "55418-8",
                            "display": "Weight and Height tracking panel"
                        }
                    ],
                    "text": "Weight and Height tracking panel"
                },
                "issued": "2014-05-15",
                "status": "final",
                "reliability": "ok",
                "extension": [
                    {
                        "url": "http://amida.com/fhir/Profile/extensions#observation-type",
                        "valueCoding": {
                            "code": "8716-3",
                            "display": "Vital signs",
                            "system": "http://loinc.org"
                        }
                    }
                ],
                "related": [
                    {
                        "type": "has-component",
                        "target": {
                            "reference": "Observation/6b541bab-689d-4c85-a1e3-a8b07a8765f7"
                        }
                    },
                    {
                        "type": "has-component",
                        "target": {
                            "reference": "Observation/da006082-d8a3-48c6-a1e0-ea6250580770"
                        }
                    },
                    {
                        "type": "has-component",
                        "target": {
                            "reference": "Observation/78ad19f2-b1c0-48b5-9956-025e33271b49"
                        }
                    }
                ]
            }
        },
        {
            "id": "Observation/d50b2093-4773-4084-a6e2-bad7434df382",
            "content": {
                "resourceType": "Observation",
                "name": {
                    "coding": [
                        {
                            "system": "http://loinc.org",
                            "code": "35094-2",
                            "display": "Blood pressure panel"
                        }
                    ],
                    "text": "Blood pressure panel"
                },
                "issued": "2014-05-15",
                "status": "final",
                "reliability": "ok",
                "extension": [
                    {
                        "url": "http://amida.com/fhir/Profile/extensions#observation-type",
                        "valueCoding": {
                            "code": "8716-3",
                            "display": "Vital signs",
                            "system": "http://loinc.org"
                        }
                    }
                ],
                "related": [
                    {
                        "type": "has-component",
                        "target": {
                            "reference": "Observation/0e8f0d43-332b-437a-b81c-de61d69f13b3"
                        }
                    },
                    {
                        "type": "has-component",
                        "target": {
                            "reference": "Observation/c6964dac-66ef-441b-bd09-a516b6cb28e2"
                        }
                    }
                ]
            }
        },
        {
            "id": "Condition/33510e5e-b242-4079-90e8-074bd5be060b",
            "content": {
                "resourceType": "Condition",
                "status": "confirmed",
                "onsetDate": "2012-08-05",
                "dateAsserted": "2012-08-05",
                "code": {
                    "coding": [
                        {
                            "system": "http://snomed.info/sct",
                            "code": "40930008",
                            "display": "Hypothyroidism"
                        }
                    ],
                    "text": "Hypothyroidism"
                }
            }
        },
        {
            "id": "Condition/2c93abca-e749-45ba-aaee-ca016aad6ce7",
            "content": {
                "resourceType": "Condition",
                "status": "confirmed",
                "onsetDate": "2012-10-02",
                "dateAsserted": "2012-10-02",
                "code": {
                    "coding": [
                        {
                            "system": "http://snomed.info/sct",
                            "code": "10509002",
                            "display": "Acute bronchitis"
                        }
                    ],
                    "text": "Acute bronchitis"
                }
            }
        },
        {
            "id": "Observation/39337587-04dd-4e57-bd8b-f143325d7a26",
            "content": {
                "resourceType": "Observation",
                "name": {
                    "coding": [
                        {
                            "system": "http://loinc.org",
                            "code": "26436-6",
                            "display": "Laboratory Studies"
                        }
                    ],
                    "text": "Laboratory Studies"
                },
                "status": "final",
                "reliability": "ok",
                "extension": [
                    {
                        "url": "http://amida.com/fhir/Profile/extensions#observation-type",
                        "valueCoding": {
                            "code": "11502-2",
                            "display": "Laboratory report",
                            "system": "http://loinc.org"
                        }
                    }
                ]
            }
        },
        {
            "id": "MedicationPrescription/1a0ceafa-b266-4b07-a4b2-78d6b24ada3e",
            "content": {
                "resourceType": "MedicationPrescription",
                "status": "active",
                "dateWritten": "2014-05-31",
                "dosageInstruction": [
                    {
                        "timingPeriod": {
                            "start": "2014-05-31"
                        }
                    }
                ],
                "text": {
                    "status": "generated",
                    "div": "acetaminophen-aspirin buffered 250 mg-250 mg oral tablet, [RxNorm: 432638]"
                },
                "contained": [
                    {
                        "id": "med",
                        "resourceType": "Medication",
                        "name": "acetaminophen-aspirin buffered 250 mg-250 mg oral tablet",
                        "code": {
                            "coding": [
                                {
                                    "system": "http://www.nlm.nih.gov/research/umls/rxnorm",
                                    "code": "432638",
                                    "display": "acetaminophen-aspirin buffered 250 mg-250 mg oral tablet"
                                }
                            ],
                            "text": "acetaminophen-aspirin buffered 250 mg-250 mg oral tablet"
                        }
                    }
                ],
                "medication": {
                    "reference": "#med",
                    "display": "acetaminophen-aspirin buffered 250 mg-250 mg oral tablet"
                }
            }
        },
        {
            "id": "MedicationAdministration/5405cdb1-d1f8-486f-9404-715235e317f6",
            "content": {
                "resourceType": "MedicationAdministration",
                "status": "completed",
                "practitioner": {
                    "reference": "Practitioner/unknown",
                    "display": "Unknown"
                },
                "whenGiven": {
                    "start": "2014-05-31"
                },
                "dosage": [
                    {
                        "timingPeriod": {
                            "start": "2014-05-31"
                        }
                    }
                ],
                "prescription": {
                    "reference": "MedicationPrescription/1a0ceafa-b266-4b07-a4b2-78d6b24ada3e",
                    "display": "acetaminophen-aspirin buffered 250 mg-250 mg oral tablet, [RxNorm: 432638]"
                },
                "contained": [
                    {
                        "id": "med",
                        "resourceType": "Medication",
                        "name": "acetaminophen-aspirin buffered 250 mg-250 mg oral tablet",
                        "code": {
                            "coding": [
                                {
                                    "system": "http://www.nlm.nih.gov/research/umls/rxnorm",
                                    "code": "432638",
                                    "display": "acetaminophen-aspirin buffered 250 mg-250 mg oral tablet"
                                }
                            ],
                            "text": "acetaminophen-aspirin buffered 250 mg-250 mg oral tablet"
                        }
                    }
                ],
                "medication": {
                    "reference": "#med",
                    "display": "acetaminophen-aspirin buffered 250 mg-250 mg oral tablet"
                }
            }
        },
        {
            "id": "MedicationPrescription/b32b71dd-cdc9-46ba-8a1a-ec65f0ff6130",
            "content": {
                "resourceType": "MedicationPrescription",
                "status": "active",
                "dateWritten": "2014-05-15",
                "dosageInstruction": [
                    {
                        "timingPeriod": {
                            "start": "2014-05-15",
                            "end": "2014-05-15"
                        }
                    }
                ],
                "text": {
                    "status": "generated",
                    "div": "Lipitor 10 mg oral tablet, [RxNorm: 617312]"
                },
                "contained": [
                    {
                        "id": "med",
                        "resourceType": "Medication",
                        "name": "Lipitor 10 mg oral tablet",
                        "code": {
                            "coding": [
                                {
                                    "system": "http://www.nlm.nih.gov/research/umls/rxnorm",
                                    "code": "617312",
                                    "display": "Lipitor 10 mg oral tablet"
                                }
                            ],
                            "text": "Lipitor 10 mg oral tablet"
                        }
                    }
                ],
                "medication": {
                    "reference": "#med",
                    "display": "Lipitor 10 mg oral tablet"
                }
            }
        },
        {
            "id": "MedicationAdministration/a415f4a4-a82d-4081-ac32-296c27ec550f",
            "content": {
                "resourceType": "MedicationAdministration",
                "status": "completed",
                "practitioner": {
                    "reference": "Practitioner/unknown",
                    "display": "Unknown"
                },
                "whenGiven": {
                    "start": "2014-05-15",
                    "end": "2014-05-15"
                },
                "dosage": [
                    {
                        "timingPeriod": {
                            "start": "2014-05-15",
                            "end": "2014-05-15"
                        }
                    }
                ],
                "prescription": {
                    "reference": "MedicationPrescription/b32b71dd-cdc9-46ba-8a1a-ec65f0ff6130",
                    "display": "Lipitor 10 mg oral tablet, [RxNorm: 617312]"
                },
                "contained": [
                    {
                        "id": "med",
                        "resourceType": "Medication",
                        "name": "Lipitor 10 mg oral tablet",
                        "code": {
                            "coding": [
                                {
                                    "system": "http://www.nlm.nih.gov/research/umls/rxnorm",
                                    "code": "617312",
                                    "display": "Lipitor 10 mg oral tablet"
                                }
                            ],
                            "text": "Lipitor 10 mg oral tablet"
                        }
                    }
                ],
                "medication": {
                    "reference": "#med",
                    "display": "Lipitor 10 mg oral tablet"
                }
            }
        }
    ]
}