{
    "resourceType": "Bundle",
    "totalResults": 15,
    "entry": [
        {
            "id": "Patient/some-id-here-1987",
            "content": {
                "resourceType": "Patient",
                "identifier": [
                    {
                        "system": "http://www.midea-tecg.com",
                        "value": "JOE_DOE_IDENTIFIER"
                    }
                ],
                "name": [
                    {
                        "family": [
                            "DOE"
                        ],
                        "given": [
                            "JOE"
                        ]
                    }
                ]
            }
        },
        {
            "id": "Observation/a8d2668a-ada6-4831-bbb7-57a05e2b70ab",
            "content": {
                "resourceType": "Observation",
                "name": {
                    "coding": [
                        {
                            "system": "http://loinc.org",
                            "code": "8302-2",
                            "display": "Height"
                        }
                    ],
                    "text": "Height"
                },
                "valueQuantity": {
                    "value": 71,
                    "units": "[in_us]",
                    "code": "[in_us]",
                    "system": "http://unitsofmeasure.org"
                },
                "issued": "2014-05-15",
                "status": "final",
                "reliability": "ok",
                "extension": [
                    {
                        "url": "http://amida.com/fhir/Profile/extensions#observation-type",
                        "valueCoding": {
                            "code": "8716-3",
                            "display": "Vital signs",
                            "system": "http://loinc.org"
                        }
                    }
                ],
                "interpretation": {
                    "coding": [
                        {
                            "system": "http://hl7.org/fhir/v2/0078",
                            "code": "N",
                            "display": "Normal"
                        }
                    ],
                    "text": "Normal"
                },
                "subject": {
                    "reference": "Patient/some-id-here-1987",
                    "display": "DOE, JOE"
                }
            }
        },
        {
            "id": "Observation/483ed8ac-18a3-4cda-946c-77771a0cc47d",
            "content": {
                "resourceType": "Observation",
                "name": {
                    "coding": [
                        {
                            "system": "http://loinc.org",
                            "code": "3141-9",
                            "display": "Patient Body Weight - Measured"
                        }
                    ],
                    "text": "Patient Body Weight - Measured"
                },
                "valueQuantity": {
                    "value": 160,
                    "units": "[lb_av]",
                    "code": "[lb_av]",
                    "system": "http://unitsofmeasure.org"
                },
                "issued": "2014-05-15",
                "status": "final",
                "reliability": "ok",
                "extension": [
                    {
                        "url": "http://amida.com/fhir/Profile/extensions#observation-type",
                        "valueCoding": {
                            "code": "8716-3",
                            "display": "Vital signs",
                            "system": "http://loinc.org"
                        }
                    }
                ],
                "interpretation": {
                    "coding": [
                        {
                            "system": "http://hl7.org/fhir/v2/0078",
                            "code": "N",
                            "display": "Normal"
                        }
                    ],
                    "text": "Normal"
                },
                "subject": {
                    "reference": "Patient/some-id-here-1987",
                    "display": "DOE, JOE"
                }
            }
        },
        {
            "id": "Observation/9c69dcd2-3425-4311-9b06-3df15ef2528c",
            "content": {
                "resourceType": "Observation",
                "name": {
                    "coding": [
                        {
                            "system": "http://loinc.org",
                            "code": "39156-5",
                            "display": "BMI (Body Mass Index)"
                        }
                    ],
                    "text": "BMI (Body Mass Index)"
                },
                "valueQuantity": {
                    "value": 22.32,
                    "units": "kg/m2",
                    "code": "kg/m2",
                    "system": "http://unitsofmeasure.org"
                },
                "issued": "2014-05-15",
                "status": "final",
                "reliability": "ok",
                "extension": [
                    {
                        "url": "http://amida.com/fhir/Profile/extensions#observation-type",
                        "valueCoding": {
                            "code": "8716-3",
                            "display": "Vital signs",
                            "system": "http://loinc.org"
                        }
                    }
                ],
                "interpretation": {
                    "coding": [
                        {
                            "system": "http://hl7.org/fhir/v2/0078",
                            "code": "N",
                            "display": "Normal"
                        }
                    ],
                    "text": "Normal"
                },
                "subject": {
                    "reference": "Patient/some-id-here-1987",
                    "display": "DOE, JOE"
                }
            }
        },
        {
            "id": "Observation/3debc9e8-08d6-4c7d-a0e9-ea809ce58761",
            "content": {
                "resourceType": "Observation",
                "name": {
                    "coding": [
                        {
                            "system": "http://loinc.org",
                            "code": "8480-6",
                            "display": "BP Systolic"
                        }
                    ],
                    "text": "BP Systolic"
                },
                "valueQuantity": {
                    "value": 120,
                    "units": "mm[Hg]",
                    "code": "mm[Hg]",
                    "system": "http://unitsofmeasure.org"
                },
                "issued": "2014-05-15",
                "status": "final",
                "reliability": "ok",
                "extension": [
                    {
                        "url": "http://amida.com/fhir/Profile/extensions#observation-type",
                        "valueCoding": {
                            "code": "8716-3",
                            "display": "Vital signs",
                            "system": "http://loinc.org"
                        }
                    }
                ],
                "interpretation": {
                    "coding": [
                        {
                            "system": "http://hl7.org/fhir/v2/0078",
                            "code": "N",
                            "display": "Normal"
                        }
                    ],
                    "text": "Normal"
                },
                "subject": {
                    "reference": "Patient/some-id-here-1987",
                    "display": "DOE, JOE"
                }
            }
        },
        {
            "id": "Observation/8d1d906f-3f17-4c76-8249-f6cebd7fadfa",
            "content": {
                "resourceType": "Observation",
                "name": {
                    "coding": [
                        {
                            "system": "http://loinc.org",
                            "code": "8462-4",
                            "display": "BP Diastolic"
                        }
                    ],
                    "text": "BP Diastolic"
                },
                "valueQuantity": {
                    "value": 0,
                    "units": "mm[Hg]",
                    "code": "mm[Hg]",
                    "system": "http://unitsofmeasure.org"
                },
                "issued": "2014-05-15",
                "status": "final",
                "reliability": "ok",
                "extension": [
                    {
                        "url": "http://amida.com/fhir/Profile/extensions#observation-type",
                        "valueCoding": {
                            "code": "8716-3",
                            "display": "Vital signs",
                            "system": "http://loinc.org"
                        }
                    }
                ],
                "interpretation": {
                    "coding": [
                        {
                            "system": "http://hl7.org/fhir/v2/0078",
                            "code": "N",
                            "display": "Normal"
                        }
                    ],
                    "text": "Normal"
                },
                "subject": {
                    "reference": "Patient/some-id-here-1987",
                    "display": "DOE, JOE"
                }
            }
        },
        {
            "id": "Observation/2c86469f-0cb5-4b48-9c8d-34e2e8b24652",
            "content": {
                "resourceType": "Observation",
                "name": {
                    "coding": [
                        {
                            "system": "http://loinc.org",
                            "code": "55418-8",
                            "display": "Weight and Height tracking panel"
                        }
                    ],
                    "text": "Weight and Height tracking panel"
                },
                "issued": "2014-05-15",
                "status": "final",
                "reliability": "ok",
                "extension": [
                    {
                        "url": "http://amida.com/fhir/Profile/extensions#observation-type",
                        "valueCoding": {
                            "code": "8716-3",
                            "display": "Vital signs",
                            "system": "http://loinc.org"
                        }
                    }
                ],
                "related": [
                    {
                        "type": "has-component",
                        "target": {
                            "reference": "Observation/a8d2668a-ada6-4831-bbb7-57a05e2b70ab"
                        }
                    },
                    {
                        "type": "has-component",
                        "target": {
                            "reference": "Observation/483ed8ac-18a3-4cda-946c-77771a0cc47d"
                        }
                    },
                    {
                        "type": "has-component",
                        "target": {
                            "reference": "Observation/9c69dcd2-3425-4311-9b06-3df15ef2528c"
                        }
                    }
                ],
                "subject": {
                    "reference": "Patient/some-id-here-1987",
                    "display": "DOE, JOE"
                }
            }
        },
        {
            "id": "Observation/dc19de84-3c05-4044-81a0-f42af78b0b65",
            "content": {
                "resourceType": "Observation",
                "name": {
                    "coding": [
                        {
                            "system": "http://loinc.org",
                            "code": "35094-2",
                            "display": "Blood pressure panel"
                        }
                    ],
                    "text": "Blood pressure panel"
                },
                "issued": "2014-05-15",
                "status": "final",
                "reliability": "ok",
                "extension": [
                    {
                        "url": "http://amida.com/fhir/Profile/extensions#observation-type",
                        "valueCoding": {
                            "code": "8716-3",
                            "display": "Vital signs",
                            "system": "http://loinc.org"
                        }
                    }
                ],
                "related": [
                    {
                        "type": "has-component",
                        "target": {
                            "reference": "Observation/3debc9e8-08d6-4c7d-a0e9-ea809ce58761"
                        }
                    },
                    {
                        "type": "has-component",
                        "target": {
                            "reference": "Observation/8d1d906f-3f17-4c76-8249-f6cebd7fadfa"
                        }
                    }
                ],
                "subject": {
                    "reference": "Patient/some-id-here-1987",
                    "display": "DOE, JOE"
                }
            }
        },
        {
            "id": "Condition/beabb3ca-f467-411c-8f68-79d7ff603958",
            "content": {
                "resourceType": "Condition",
                "status": "confirmed",
                "onsetDate": "2012-08-05",
                "dateAsserted": "2012-08-05",
                "code": {
                    "coding": [
                        {
                            "system": "http://snomed.info/sct",
                            "code": "40930008",
                            "display": "Hypothyroidism"
                        }
                    ],
                    "text": "Hypothyroidism"
                },
                "subject": {
                    "reference": "Patient/some-id-here-1987",
                    "display": "DOE, JOE"
                }
            }
        },
        {
            "id": "Condition/dcf24eb7-dc4e-40a0-bb21-8920e445b914",
            "content": {
                "resourceType": "Condition",
                "status": "confirmed",
                "onsetDate": "2012-10-02",
                "dateAsserted": "2012-10-02",
                "code": {
                    "coding": [
                        {
                            "system": "http://snomed.info/sct",
                            "code": "10509002",
                            "display": "Acute bronchitis"
                        }
                    ],
                    "text": "Acute bronchitis"
                },
                "subject": {
                    "reference": "Patient/some-id-here-1987",
                    "display": "DOE, JOE"
                }
            }
        },
        {
            "id": "Observation/5acc84ba-170e-4c86-b5aa-6dfc64e4d84b",
            "content": {
                "resourceType": "Observation",
                "name": {
                    "coding": [
                        {
                            "system": "http://loinc.org",
                            "code": "26436-6",
                            "display": "Laboratory Studies"
                        }
                    ],
                    "text": "Laboratory Studies"
                },
                "status": "final",
                "reliability": "ok",
                "extension": [
                    {
                        "url": "http://amida.com/fhir/Profile/extensions#observation-type",
                        "valueCoding": {
                            "code": "11502-2",
                            "display": "Laboratory report",
                            "system": "http://loinc.org"
                        }
                    }
                ],
                "subject": {
                    "reference": "Patient/some-id-here-1987",
                    "display": "DOE, JOE"
                }
            }
        },
        {
            "id": "MedicationPrescription/df70be46-6e73-4e69-a4db-ed93a131da1d",
            "content": {
                "resourceType": "MedicationPrescription",
                "status": "active",
                "dateWritten": "2014-05-31",
                "dosageInstruction": [
                    {
                        "timingSchedule": {
                            "event": [
                                {
                                    "start": "2014-05-31"
                                }
                            ]
                        }
                    }
                ],
                "text": {
                    "status": "generated",
                    "div": "acetaminophen-aspirin buffered 250 mg-250 mg oral tablet, [RxNorm: 432638]"
                },
                "contained": [
                    {
                        "id": "med",
                        "resourceType": "Medication",
                        "name": "acetaminophen-aspirin buffered 250 mg-250 mg oral tablet",
                        "code": {
                            "coding": [
                                {
                                    "system": "http://www.nlm.nih.gov/research/umls/rxnorm",
                                    "code": "432638",
                                    "display": "acetaminophen-aspirin buffered 250 mg-250 mg oral tablet"
                                }
                            ],
                            "text": "acetaminophen-aspirin buffered 250 mg-250 mg oral tablet"
                        }
                    }
                ],
                "medication": {
                    "reference": "#med",
                    "display": "acetaminophen-aspirin buffered 250 mg-250 mg oral tablet"
                },
                "patient": {
                    "reference": "Patient/some-id-here-1987",
                    "display": "DOE, JOE"
                }
            }
        },
        {
            "id": "MedicationAdministration/3e594988-b088-4bc4-a226-b1067321dc59",
            "content": {
                "resourceType": "MedicationAdministration",
                "status": "completed",
                "practitioner": {
                    "reference": "Practitioner/unknown",
                    "display": "Unknown"
                },
                "whenGiven": {
                    "start": "2014-05-31"
                },
                "dosage": [
                    {
                        "timingPeriod": {
                            "start": "2014-05-31"
                        }
                    }
                ],
                "prescription": {
                    "reference": "MedicationPrescription/df70be46-6e73-4e69-a4db-ed93a131da1d",
                    "display": "acetaminophen-aspirin buffered 250 mg-250 mg oral tablet, [RxNorm: 432638]"
                },
                "contained": [
                    {
                        "id": "med",
                        "resourceType": "Medication",
                        "name": "acetaminophen-aspirin buffered 250 mg-250 mg oral tablet",
                        "code": {
                            "coding": [
                                {
                                    "system": "http://www.nlm.nih.gov/research/umls/rxnorm",
                                    "code": "432638",
                                    "display": "acetaminophen-aspirin buffered 250 mg-250 mg oral tablet"
                                }
                            ],
                            "text": "acetaminophen-aspirin buffered 250 mg-250 mg oral tablet"
                        }
                    }
                ],
                "medication": {
                    "reference": "#med",
                    "display": "acetaminophen-aspirin buffered 250 mg-250 mg oral tablet"
                },
                "patient": {
                    "reference": "Patient/some-id-here-1987",
                    "display": "DOE, JOE"
                }
            }
        },
        {
            "id": "MedicationPrescription/6e27b815-e747-40f8-9768-97f018aeddee",
            "content": {
                "resourceType": "MedicationPrescription",
                "status": "active",
                "dateWritten": "2014-05-15",
                "dosageInstruction": [
                    {
                        "timingSchedule": {
                            "event": [
                                {
                                    "start": "2014-05-15"
                                }
                            ]
                        }
                    }
                ],
                "text": {
                    "status": "generated",
                    "div": "Lipitor 10 mg oral tablet, [RxNorm: 617312]"
                },
                "contained": [
                    {
                        "id": "med",
                        "resourceType": "Medication",
                        "name": "Lipitor 10 mg oral tablet",
                        "code": {
                            "coding": [
                                {
                                    "system": "http://www.nlm.nih.gov/research/umls/rxnorm",
                                    "code": "617312",
                                    "display": "Lipitor 10 mg oral tablet"
                                }
                            ],
                            "text": "Lipitor 10 mg oral tablet"
                        }
                    }
                ],
                "medication": {
                    "reference": "#med",
                    "display": "Lipitor 10 mg oral tablet"
                },
                "patient": {
                    "reference": "Patient/some-id-here-1987",
                    "display": "DOE, JOE"
                }
            }
        },
        {
            "id": "MedicationAdministration/4a0ed077-441f-462d-a863-6ef1252123f0",
            "content": {
                "resourceType": "MedicationAdministration",
                "status": "completed",
                "practitioner": {
                    "reference": "Practitioner/unknown",
                    "display": "Unknown"
                },
                "whenGiven": {
                    "start": "2014-05-15",
                    "end": "2014-05-15"
                },
                "dosage": [
                    {
                        "timingPeriod": {
                            "start": "2014-05-15",
                            "end": "2014-05-15"
                        }
                    }
                ],
                "prescription": {
                    "reference": "MedicationPrescription/6e27b815-e747-40f8-9768-97f018aeddee",
                    "display": "Lipitor 10 mg oral tablet, [RxNorm: 617312]"
                },
                "contained": [
                    {
                        "id": "med",
                        "resourceType": "Medication",
                        "name": "Lipitor 10 mg oral tablet",
                        "code": {
                            "coding": [
                                {
                                    "system": "http://www.nlm.nih.gov/research/umls/rxnorm",
                                    "code": "617312",
                                    "display": "Lipitor 10 mg oral tablet"
                                }
                            ],
                            "text": "Lipitor 10 mg oral tablet"
                        }
                    }
                ],
                "medication": {
                    "reference": "#med",
                    "display": "Lipitor 10 mg oral tablet"
                },
                "patient": {
                    "reference": "Patient/some-id-here-1987",
                    "display": "DOE, JOE"
                }
            }
        }
    ]
}