{
    "resourceType": "Bundle",
    "total": 11,
    "entry": [
        {
            "resource": {
                "id": "Patient/0",
                "resourceType": "Patient",
                "identifier": [
                    {
                        "system": "http://www.midea-tecg.com",
                        "value": "JOE_DOE_IDENTIFIER"
                    }
                ],
                "name": [
                    {
                        "family": [
                            "DOE"
                        ],
                        "given": [
                            "JOE"
                        ]
                    }
                ]
            }
        },
        {
            "resource": {
                "id": "AllergyIntolerance/1",
                "resourceType": "AllergyIntolerance",
                "sensitivityType": "allergy",
                "status": "resolved",
                "substance": {
                    "reference": "Substance/8",
                    "display": "sulfa drug"
                },
                "subject": {
                    "reference": "Patient/0",
                    "display": "DOE, JOE"
                }
            }
        },
        {
            "resource": {
                "id": "Condition/2",
                "resourceType": "Condition",
                "status": "confirmed",
                "onsetDateTime": "2012-08-05",
                "dateAsserted": "2012-08-05",
                "code": {
                    "coding": [
                        {
                            "system": "http://snomed.info/sct",
                            "code": "40930008",
                            "display": "Hypothyroidism"
                        }
                    ],
                    "text": "Hypothyroidism"
                },
                "subject": {
                    "reference": "Patient/0",
                    "display": "DOE, JOE"
                }
            }
        },
        {
            "resource": {
                "id": "Condition/3",
                "resourceType": "Condition",
                "status": "confirmed",
                "onsetDateTime": "2012-10-02",
                "dateAsserted": "2012-10-02",
                "code": {
                    "coding": [
                        {
                            "system": "http://snomed.info/sct",
                            "code": "10509002",
                            "display": "Acute bronchitis"
                        }
                    ],
                    "text": "Acute bronchitis"
                },
                "subject": {
                    "reference": "Patient/0",
                    "display": "DOE, JOE"
                }
            }
        },
        {
            "resource": {
                "id": "Observation/4",
                "resourceType": "Observation",
                "name": {
                    "coding": [
                        {
                            "system": "http://loinc.org",
                            "code": "30954-2",
                            "display": "Results"
                        }
                    ],
                    "text": "Results"
                },
                "status": "final",
                "reliability": "ok",
                "extension": [
                    {
                        "url": "http://amida.com/fhir/Profile/extensions#observation-type",
                        "valueCoding": {
                            "code": "11502-2",
                            "display": "Laboratory report",
                            "system": "http://loinc.org"
                        }
                    }
                ],
                "interpretation": {
                    "coding": [
                        {
                            "system": "http://hl7.org/fhir/v2/0078",
                            "code": "N",
                            "display": "Normal"
                        }
                    ],
                    "text": "Normal"
                },
                "subject": {
                    "reference": "Patient/0",
                    "display": "DOE, JOE"
                }
            }
        },
        {
            "resource": {
                "id": "Observation/5",
                "resourceType": "Observation",
                "name": {
                    "coding": [
                        {
                            "system": "urn:oid:2.16.840.1.113883.6.12",
                            "code": "99499",
                            "display": "No Procedure Performed"
                        }
                    ],
                    "text": "No Procedure Performed"
                },
                "status": "final",
                "reliability": "ok",
                "related": [
                    {
                        "type": "has-component",
                        "target": {
                            "reference": "Observation/4"
                        }
                    }
                ],
                "extension": [
                    {
                        "url": "http://amida.com/fhir/Profile/extensions#observation-type",
                        "valueCoding": {
                            "code": "11502-2",
                            "display": "Laboratory report",
                            "system": "http://loinc.org"
                        }
                    }
                ],
                "subject": {
                    "reference": "Patient/0",
                    "display": "DOE, JOE"
                }
            }
        },
        {
            "resource": {
                "id": "MedicationPrescription/6",
                "resourceType": "MedicationPrescription",
                "status": "active",
                "dateWritten": "2015-04-29",
                "dosageInstruction": [
                    {
                        "timingPeriod": {
                            "start": "2015-04-29"
                        }
                    }
                ],
                "medication": {
                    "reference": "Medication/9",
                    "display": "acetaminophen-aspirin buffered 250 mg-250 mg oral tablet"
                },
                "patient": {
                    "reference": "Patient/0",
                    "display": "DOE, JOE"
                }
            }
        },
        {
            "resource": {
                "id": "MedicationAdministration/7",
                "resourceType": "MedicationAdministration",
                "status": "completed",
                "practitioner": {
                    "reference": "Practitioner/unknown",
                    "display": "Unknown"
                },
                "whenGiven": {
                    "start": "2015-04-29"
                },
                "dosage": [
                    {
                        "timingPeriod": {
                            "start": "2015-04-29"
                        }
                    }
                ],
                "prescription": {
                    "reference": "MedicationPrescription/6"
                },
                "medication": {
                    "reference": "Medication/10",
                    "display": "acetaminophen-aspirin buffered 250 mg-250 mg oral tablet"
                },
                "patient": {
                    "reference": "Patient/0",
                    "display": "DOE, JOE"
                }
            }
        },
        {
            "resource": {
                "id": "Substance/8",
                "resourceType": "Substance",
                "type": {
                    "coding": [
                        {
                            "code": {
                                "name": "sulfa drug",
                                "code_system_name": "RXNORM"
                            },
                            "display": "sulfa drug"
                        }
                    ],
                    "text": "sulfa drug"
                }
            }
        },
        {
            "resource": {
                "id": "Medication/9",
                "resourceType": "Medication",
                "name": "acetaminophen-aspirin buffered 250 mg-250 mg oral tablet",
                "code": {
                    "coding": [
                        {
                            "system": "http://www.nlm.nih.gov/research/umls/rxnorm",
                            "code": "432638",
                            "display": "acetaminophen-aspirin buffered 250 mg-250 mg oral tablet"
                        }
                    ],
                    "text": "acetaminophen-aspirin buffered 250 mg-250 mg oral tablet"
                }
            }
        },
        {
            "resource": {
                "id": "Medication/10",
                "resourceType": "Medication",
                "name": "acetaminophen-aspirin buffered 250 mg-250 mg oral tablet",
                "code": {
                    "coding": [
                        {
                            "system": "http://www.nlm.nih.gov/research/umls/rxnorm",
                            "code": "432638",
                            "display": "acetaminophen-aspirin buffered 250 mg-250 mg oral tablet"
                        }
                    ],
                    "text": "acetaminophen-aspirin buffered 250 mg-250 mg oral tablet"
                }
            }
        }
    ]
}