{
    "resourceType": "Bundle",
    "totalResults": 8,
    "entry": [
        {
            "id": "Patient/0",
            "content": {
                "resourceType": "Patient",
                "identifier": [
                    {
                        "system": "urn:oid:ProviderID",
                        "value": "28366080"
                    }
                ],
                "name": {
                    "family": [
                        "MILLER"
                    ],
                    "given": [
                        "JOEY",
                        "null"
                    ]
                },
                "gender": {
                    "coding": [
                        {
                            "system": "http://hl7.org/fhir/v3/AdministrativeGender",
                            "code": "M",
                            "display": "Male"
                        }
                    ],
                    "text": "Male"
                },
                "birthdate": "1947-10-10",
                "address": [
                    {
                        "use": "home",
                        "line": [
                            "26 N. Martin Street"
                        ],
                        "city": "Los Angeles",
                        "state": "CA",
                        "zip": "90005",
                        "country": "United States of America"
                    }
                ]
            }
        },
        {
            "id": "AllergyIntolerance/1",
            "content": {
                "resourceType": "AllergyIntolerance",
                "sensitivityType": "allergy",
                "status": "resolved",
                "contained": [
                    {
                        "id": "allergen",
                        "resourceType": "Substance",
                        "type": {
                            "coding": [
                                {
                                    "code": {
                                        "name": "sulfa drug",
                                        "code_system_name": "RXNORM"
                                    },
                                    "display": "sulfa drug"
                                }
                            ],
                            "text": "sulfa drug"
                        }
                    }
                ],
                "substance": {
                    "reference": "#allergen",
                    "display": "sulfa drug"
                },
                "subject": {
                    "reference": "Patient/0",
                    "display": ", "
                }
            }
        },
        {
            "id": "Condition/2",
            "content": {
                "resourceType": "Condition",
                "status": "confirmed",
                "onsetDate": "2012-08-05",
                "dateAsserted": "2012-08-05",
                "code": {
                    "coding": [
                        {
                            "system": "http://snomed.info/sct",
                            "code": "40930008",
                            "display": "Hypothyroidism"
                        }
                    ],
                    "text": "Hypothyroidism"
                },
                "subject": {
                    "reference": "Patient/0",
                    "display": ", "
                }
            }
        },
        {
            "id": "Condition/3",
            "content": {
                "resourceType": "Condition",
                "status": "confirmed",
                "onsetDate": "2012-10-02",
                "dateAsserted": "2012-10-02",
                "code": {
                    "coding": [
                        {
                            "system": "http://snomed.info/sct",
                            "code": "10509002",
                            "display": "Acute bronchitis"
                        }
                    ],
                    "text": "Acute bronchitis"
                },
                "subject": {
                    "reference": "Patient/0",
                    "display": ", "
                }
            }
        },
        {
            "id": "Observation/4",
            "content": {
                "resourceType": "Observation",
                "name": {
                    "coding": [
                        {
                            "system": "http://loinc.org",
                            "code": "30954-2",
                            "display": "Results"
                        }
                    ],
                    "text": "Results"
                },
                "status": "final",
                "reliability": "ok",
                "extension": [
                    {
                        "url": "http://amida.com/fhir/Profile/extensions#observation-type",
                        "valueCoding": {
                            "code": "11502-2",
                            "display": "Laboratory report",
                            "system": "http://loinc.org"
                        }
                    }
                ],
                "interpretation": {
                    "coding": [
                        {
                            "system": "http://hl7.org/fhir/v2/0078",
                            "code": "N",
                            "display": "Normal"
                        }
                    ],
                    "text": "Normal"
                },
                "subject": {
                    "reference": "Patient/0",
                    "display": ", "
                }
            }
        },
        {
            "id": "Observation/5",
            "content": {
                "resourceType": "Observation",
                "name": {
                    "coding": [
                        {
                            "system": "urn:oid:2.16.840.1.113883.6.12",
                            "code": "99499",
                            "display": "No Procedure Performed"
                        }
                    ],
                    "text": "No Procedure Performed"
                },
                "status": "final",
                "reliability": "ok",
                "related": [
                    {
                        "type": "has-component",
                        "target": {
                            "reference": "Observation/4"
                        }
                    }
                ],
                "extension": [
                    {
                        "url": "http://amida.com/fhir/Profile/extensions#observation-type",
                        "valueCoding": {
                            "code": "11502-2",
                            "display": "Laboratory report",
                            "system": "http://loinc.org"
                        }
                    }
                ],
                "subject": {
                    "reference": "Patient/0",
                    "display": ", "
                }
            }
        },
        {
            "id": "MedicationPrescription/6",
            "content": {
                "resourceType": "MedicationPrescription",
                "status": "active",
                "dateWritten": "2015-04-08T00:00:00.000Z",
                "dosageInstruction": [
                    {
                        "route": {
                            "text": "PO"
                        },
                        "timingPeriod": {
                            "start": "2015-04-08T00:00:00.000Z"
                        }
                    }
                ],
                "contained": [
                    {
                        "id": "med",
                        "resourceType": "Medication",
                        "name": "acetaminophen-aspirin",
                        "code": {
                            "coding": [
                                {
                                    "system": "http://www.nlm.nih.gov/research/umls/rxnorm",
                                    "code": "432638",
                                    "display": "acetaminophen-aspirin buffered 250 mg-250 mg oral tablet"
                                }
                            ],
                            "text": "acetaminophen-aspirin buffered 250 mg-250 mg oral tablet"
                        }
                    }
                ],
                "medication": {
                    "reference": "#med",
                    "display": "acetaminophen-aspirin"
                },
                "patient": {
                    "reference": "Patient/0",
                    "display": ", "
                }
            }
        },
        {
            "id": "MedicationAdministration/7",
            "content": {
                "resourceType": "MedicationAdministration",
                "status": "completed",
                "practitioner": {
                    "reference": "Practitioner/unknown",
                    "display": "Unknown"
                },
                "whenGiven": {
                    "start": "2015-04-08T00:00:00.000Z"
                },
                "dosage": [
                    {
                        "route": {
                            "text": "PO"
                        },
                        "timingPeriod": {
                            "start": "2015-04-08T00:00:00.000Z"
                        }
                    }
                ],
                "prescription": {
                    "reference": "MedicationPrescription/6"
                },
                "contained": [
                    {
                        "id": "med",
                        "resourceType": "Medication",
                        "name": "acetaminophen-aspirin",
                        "code": {
                            "coding": [
                                {
                                    "system": "http://www.nlm.nih.gov/research/umls/rxnorm",
                                    "code": "432638",
                                    "display": "acetaminophen-aspirin buffered 250 mg-250 mg oral tablet"
                                }
                            ],
                            "text": "acetaminophen-aspirin buffered 250 mg-250 mg oral tablet"
                        }
                    }
                ],
                "medication": {
                    "reference": "#med",
                    "display": "acetaminophen-aspirin"
                },
                "patient": {
                    "reference": "Patient/0",
                    "display": ", "
                }
            }
        }
    ]
}