{
    "resourceType": "Bundle",
    "totalResults": 14,
    "entry": [
        {
            "id": "Observation/4788b0c4-8b11-4faa-890a-0d8a5606d10a",
            "content": {
                "resourceType": "Observation",
                "name": {
                    "coding": [
                        {
                            "system": "http://loinc.org",
                            "code": "8302-2",
                            "display": "Height"
                        }
                    ],
                    "text": "Height"
                },
                "valueQuantity": {
                    "value": 71,
                    "units": "[in_us]",
                    "code": "[in_us]",
                    "system": "http://unitsofmeasure.org"
                },
                "issued": "2014-05-15",
                "status": "final",
                "reliability": "ok",
                "extension": [
                    {
                        "url": "http://amida.com/fhir/Profile/extensions#observation-type",
                        "valueCoding": {
                            "code": "8716-3",
                            "display": "Vital signs",
                            "system": "http://loinc.org"
                        }
                    }
                ],
                "interpretation": {
                    "coding": [
                        {
                            "system": "http://hl7.org/fhir/v2/0078",
                            "code": "N",
                            "display": "Normal"
                        }
                    ],
                    "text": "Normal"
                }
            }
        },
        {
            "id": "Observation/2525985f-49a4-40f3-b4b3-1c32ccd4e1e0",
            "content": {
                "resourceType": "Observation",
                "name": {
                    "coding": [
                        {
                            "system": "http://loinc.org",
                            "code": "3141-9",
                            "display": "Patient Body Weight - Measured"
                        }
                    ],
                    "text": "Patient Body Weight - Measured"
                },
                "valueQuantity": {
                    "value": 160,
                    "units": "[lb_av]",
                    "code": "[lb_av]",
                    "system": "http://unitsofmeasure.org"
                },
                "issued": "2014-05-15",
                "status": "final",
                "reliability": "ok",
                "extension": [
                    {
                        "url": "http://amida.com/fhir/Profile/extensions#observation-type",
                        "valueCoding": {
                            "code": "8716-3",
                            "display": "Vital signs",
                            "system": "http://loinc.org"
                        }
                    }
                ],
                "interpretation": {
                    "coding": [
                        {
                            "system": "http://hl7.org/fhir/v2/0078",
                            "code": "N",
                            "display": "Normal"
                        }
                    ],
                    "text": "Normal"
                }
            }
        },
        {
            "id": "Observation/d1ad9e50-6e22-46d6-8545-e51cb94c1a6a",
            "content": {
                "resourceType": "Observation",
                "name": {
                    "coding": [
                        {
                            "system": "http://loinc.org",
                            "code": "39156-5",
                            "display": "BMI (Body Mass Index)"
                        }
                    ],
                    "text": "BMI (Body Mass Index)"
                },
                "valueQuantity": {
                    "value": 22.32,
                    "units": "kg/m2",
                    "code": "kg/m2",
                    "system": "http://unitsofmeasure.org"
                },
                "issued": "2014-05-15",
                "status": "final",
                "reliability": "ok",
                "extension": [
                    {
                        "url": "http://amida.com/fhir/Profile/extensions#observation-type",
                        "valueCoding": {
                            "code": "8716-3",
                            "display": "Vital signs",
                            "system": "http://loinc.org"
                        }
                    }
                ],
                "interpretation": {
                    "coding": [
                        {
                            "system": "http://hl7.org/fhir/v2/0078",
                            "code": "N",
                            "display": "Normal"
                        }
                    ],
                    "text": "Normal"
                }
            }
        },
        {
            "id": "Observation/b92a0ff2-5cc8-473f-b029-bd3e415c3ed7",
            "content": {
                "resourceType": "Observation",
                "name": {
                    "coding": [
                        {
                            "system": "http://loinc.org",
                            "code": "8480-6",
                            "display": "BP Systolic"
                        }
                    ],
                    "text": "BP Systolic"
                },
                "valueQuantity": {
                    "value": 120,
                    "units": "mm[Hg]",
                    "code": "mm[Hg]",
                    "system": "http://unitsofmeasure.org"
                },
                "issued": "2014-05-15",
                "status": "final",
                "reliability": "ok",
                "extension": [
                    {
                        "url": "http://amida.com/fhir/Profile/extensions#observation-type",
                        "valueCoding": {
                            "code": "8716-3",
                            "display": "Vital signs",
                            "system": "http://loinc.org"
                        }
                    }
                ],
                "interpretation": {
                    "coding": [
                        {
                            "system": "http://hl7.org/fhir/v2/0078",
                            "code": "N",
                            "display": "Normal"
                        }
                    ],
                    "text": "Normal"
                }
            }
        },
        {
            "id": "Observation/d447acda-1fbb-4607-bb58-bdbddb6df8bf",
            "content": {
                "resourceType": "Observation",
                "name": {
                    "coding": [
                        {
                            "system": "http://loinc.org",
                            "code": "8462-4",
                            "display": "BP Diastolic"
                        }
                    ],
                    "text": "BP Diastolic"
                },
                "valueQuantity": {
                    "value": 0,
                    "units": "mm[Hg]",
                    "code": "mm[Hg]",
                    "system": "http://unitsofmeasure.org"
                },
                "issued": "2014-05-15",
                "status": "final",
                "reliability": "ok",
                "extension": [
                    {
                        "url": "http://amida.com/fhir/Profile/extensions#observation-type",
                        "valueCoding": {
                            "code": "8716-3",
                            "display": "Vital signs",
                            "system": "http://loinc.org"
                        }
                    }
                ],
                "interpretation": {
                    "coding": [
                        {
                            "system": "http://hl7.org/fhir/v2/0078",
                            "code": "N",
                            "display": "Normal"
                        }
                    ],
                    "text": "Normal"
                }
            }
        },
        {
            "id": "Observation/7d673fd3-7b9f-4256-b9ef-5f5bd7fc3741",
            "content": {
                "resourceType": "Observation",
                "name": {
                    "coding": [
                        {
                            "system": "http://loinc.org",
                            "code": "55418-8",
                            "display": "Weight and Height tracking panel"
                        }
                    ],
                    "text": "Weight and Height tracking panel"
                },
                "issued": "2014-05-15",
                "status": "final",
                "reliability": "ok",
                "extension": [
                    {
                        "url": "http://amida.com/fhir/Profile/extensions#observation-type",
                        "valueCoding": {
                            "code": "8716-3",
                            "display": "Vital signs",
                            "system": "http://loinc.org"
                        }
                    }
                ],
                "related": [
                    {
                        "type": "has-component",
                        "target": {
                            "reference": "Observation/4788b0c4-8b11-4faa-890a-0d8a5606d10a"
                        }
                    },
                    {
                        "type": "has-component",
                        "target": {
                            "reference": "Observation/2525985f-49a4-40f3-b4b3-1c32ccd4e1e0"
                        }
                    },
                    {
                        "type": "has-component",
                        "target": {
                            "reference": "Observation/d1ad9e50-6e22-46d6-8545-e51cb94c1a6a"
                        }
                    }
                ]
            }
        },
        {
            "id": "Observation/e8efa876-a62f-4902-9c06-85615d9cc34f",
            "content": {
                "resourceType": "Observation",
                "name": {
                    "coding": [
                        {
                            "system": "http://loinc.org",
                            "code": "35094-2",
                            "display": "Blood pressure panel"
                        }
                    ],
                    "text": "Blood pressure panel"
                },
                "issued": "2014-05-15",
                "status": "final",
                "reliability": "ok",
                "extension": [
                    {
                        "url": "http://amida.com/fhir/Profile/extensions#observation-type",
                        "valueCoding": {
                            "code": "8716-3",
                            "display": "Vital signs",
                            "system": "http://loinc.org"
                        }
                    }
                ],
                "related": [
                    {
                        "type": "has-component",
                        "target": {
                            "reference": "Observation/b92a0ff2-5cc8-473f-b029-bd3e415c3ed7"
                        }
                    },
                    {
                        "type": "has-component",
                        "target": {
                            "reference": "Observation/d447acda-1fbb-4607-bb58-bdbddb6df8bf"
                        }
                    }
                ]
            }
        },
        {
            "id": "Condition/f91c3850-1165-4881-9f00-db766f727b86",
            "content": {
                "resourceType": "Condition",
                "status": "confirmed",
                "onsetDate": "2012-08-05",
                "dateAsserted": "2012-08-05",
                "code": {
                    "coding": [
                        {
                            "system": "http://snomed.info/sct",
                            "code": "40930008",
                            "display": "Hypothyroidism"
                        }
                    ],
                    "text": "Hypothyroidism"
                }
            }
        },
        {
            "id": "Condition/8c731844-44d7-4727-acf0-4d6c7afb73a0",
            "content": {
                "resourceType": "Condition",
                "status": "confirmed",
                "onsetDate": "2012-10-02",
                "dateAsserted": "2012-10-02",
                "code": {
                    "coding": [
                        {
                            "system": "http://snomed.info/sct",
                            "code": "10509002",
                            "display": "Acute bronchitis"
                        }
                    ],
                    "text": "Acute bronchitis"
                }
            }
        },
        {
            "id": "Observation/5e12abfd-a45e-434d-a05b-1d5f1d2e6d91",
            "content": {
                "resourceType": "Observation",
                "name": {
                    "coding": [
                        {
                            "system": "http://loinc.org",
                            "code": "26436-6",
                            "display": "Laboratory Studies"
                        }
                    ],
                    "text": "Laboratory Studies"
                },
                "status": "final",
                "reliability": "ok",
                "extension": [
                    {
                        "url": "http://amida.com/fhir/Profile/extensions#observation-type",
                        "valueCoding": {
                            "code": "11502-2",
                            "display": "Laboratory report",
                            "system": "http://loinc.org"
                        }
                    }
                ]
            }
        },
        {
            "id": "MedicationPrescription/6285aef6-0e19-4811-a24d-8993d49ffbdb",
            "content": {
                "resourceType": "MedicationPrescription",
                "status": "active",
                "dateWritten": "2014-05-31",
                "dosageInstruction": [
                    {
                        "timingSchedule": {
                            "event": [
                                {
                                    "start": "2014-05-31"
                                }
                            ]
                        }
                    }
                ],
                "text": {
                    "status": "generated",
                    "div": "acetaminophen-aspirin buffered 250 mg-250 mg oral tablet, [RxNorm: 432638]"
                },
                "contained": [
                    {
                        "id": "med",
                        "resourceType": "Medication",
                        "name": "acetaminophen-aspirin buffered 250 mg-250 mg oral tablet",
                        "code": {
                            "coding": [
                                {
                                    "system": "http://www.nlm.nih.gov/research/umls/rxnorm",
                                    "code": "432638",
                                    "display": "acetaminophen-aspirin buffered 250 mg-250 mg oral tablet"
                                }
                            ],
                            "text": "acetaminophen-aspirin buffered 250 mg-250 mg oral tablet"
                        }
                    }
                ],
                "medication": {
                    "reference": "#med",
                    "display": "acetaminophen-aspirin buffered 250 mg-250 mg oral tablet"
                }
            }
        },
        {
            "id": "MedicationAdministration/6c86fcd0-86d2-46bd-a4a8-711311b4987e",
            "content": {
                "resourceType": "MedicationAdministration",
                "status": "completed",
                "practitioner": {
                    "reference": "Practitioner/unknown",
                    "display": "Unknown"
                },
                "whenGiven": {
                    "start": "2014-05-31"
                },
                "dosage": [
                    {
                        "timingPeriod": {
                            "start": "2014-05-31"
                        }
                    }
                ],
                "prescription": {
                    "reference": "MedicationPrescription/6285aef6-0e19-4811-a24d-8993d49ffbdb",
                    "display": "acetaminophen-aspirin buffered 250 mg-250 mg oral tablet, [RxNorm: 432638]"
                },
                "contained": [
                    {
                        "id": "med",
                        "resourceType": "Medication",
                        "name": "acetaminophen-aspirin buffered 250 mg-250 mg oral tablet",
                        "code": {
                            "coding": [
                                {
                                    "system": "http://www.nlm.nih.gov/research/umls/rxnorm",
                                    "code": "432638",
                                    "display": "acetaminophen-aspirin buffered 250 mg-250 mg oral tablet"
                                }
                            ],
                            "text": "acetaminophen-aspirin buffered 250 mg-250 mg oral tablet"
                        }
                    }
                ],
                "medication": {
                    "reference": "#med",
                    "display": "acetaminophen-aspirin buffered 250 mg-250 mg oral tablet"
                }
            }
        },
        {
            "id": "MedicationPrescription/f7f8d6fa-0903-462f-88b7-aca1fe1392f4",
            "content": {
                "resourceType": "MedicationPrescription",
                "status": "active",
                "dateWritten": "2014-05-15",
                "dosageInstruction": [
                    {
                        "timingSchedule": {
                            "event": [
                                {
                                    "start": "2014-05-15"
                                }
                            ]
                        }
                    }
                ],
                "text": {
                    "status": "generated",
                    "div": "Lipitor 10 mg oral tablet, [RxNorm: 617312]"
                },
                "contained": [
                    {
                        "id": "med",
                        "resourceType": "Medication",
                        "name": "Lipitor 10 mg oral tablet",
                        "code": {
                            "coding": [
                                {
                                    "system": "http://www.nlm.nih.gov/research/umls/rxnorm",
                                    "code": "617312",
                                    "display": "Lipitor 10 mg oral tablet"
                                }
                            ],
                            "text": "Lipitor 10 mg oral tablet"
                        }
                    }
                ],
                "medication": {
                    "reference": "#med",
                    "display": "Lipitor 10 mg oral tablet"
                }
            }
        },
        {
            "id": "MedicationAdministration/76e23c61-1dc2-4571-a4ad-3fffaa819512",
            "content": {
                "resourceType": "MedicationAdministration",
                "status": "completed",
                "practitioner": {
                    "reference": "Practitioner/unknown",
                    "display": "Unknown"
                },
                "whenGiven": {
                    "start": "2014-05-15",
                    "end": "2014-05-15"
                },
                "dosage": [
                    {
                        "timingPeriod": {
                            "start": "2014-05-15",
                            "end": "2014-05-15"
                        }
                    }
                ],
                "prescription": {
                    "reference": "MedicationPrescription/f7f8d6fa-0903-462f-88b7-aca1fe1392f4",
                    "display": "Lipitor 10 mg oral tablet, [RxNorm: 617312]"
                },
                "contained": [
                    {
                        "id": "med",
                        "resourceType": "Medication",
                        "name": "Lipitor 10 mg oral tablet",
                        "code": {
                            "coding": [
                                {
                                    "system": "http://www.nlm.nih.gov/research/umls/rxnorm",
                                    "code": "617312",
                                    "display": "Lipitor 10 mg oral tablet"
                                }
                            ],
                            "text": "Lipitor 10 mg oral tablet"
                        }
                    }
                ],
                "medication": {
                    "reference": "#med",
                    "display": "Lipitor 10 mg oral tablet"
                }
            }
        }
    ]
}