{
    "resourceType": "Bundle",
    "total": 8,
    "entry": [
        {
            "resource": {
                "id": "Patient/0",
                "resourceType": "Patient",
                "identifier": [
                    {
                        "system": "ProviderID",
                        "value": "28366080"
                    }
                ],
                "name": [
                    {
                        "family": [
                            "MILLER"
                        ],
                        "given": [
                            "JOEY",
                            "null"
                        ]
                    }
                ],
                "gender": "male",
                "birthDate": "1947-10-10",
                "address": [
                    {
                        "use": "home",
                        "line": [
                            "26 N. Martin Street"
                        ],
                        "city": "Los Angeles",
                        "state": "CA",
                        "postalCode": "90005",
                        "country": "United States of America"
                    }
                ],
                "communication": [
                    {
                        "language": {
                            "coding": [
                                {
                                    "code": "en-US",
                                    "system": "urn:ietf:params:language"
                                }
                            ]
                        }
                    }
                ]
            }
        },
        {
            "resource": {
                "id": "AllergyIntolerance/1",
                "resourceType": "AllergyIntolerance",
                "status": "resolved",
                "substance": {
                    "coding": [
                        {
                            "code": {
                                "name": "sulfa drug",
                                "code_system_name": "RXNORM"
                            },
                            "display": "sulfa drug"
                        }
                    ],
                    "text": "sulfa drug"
                },
                "subject": {
                    "reference": "Patient/0",
                    "display": "MILLER, JOEY null"
                }
            }
        },
        {
            "resource": {
                "id": "Condition/2",
                "resourceType": "Condition",
                "status": "confirmed",
                "onsetDateTime": "2012-08-05",
                "dateAsserted": "2012-08-05",
                "code": {
                    "coding": [
                        {
                            "system": "http://snomed.info/sct",
                            "code": "40930008",
                            "display": "Hypothyroidism"
                        }
                    ],
                    "text": "Hypothyroidism"
                },
                "subject": {
                    "reference": "Patient/0",
                    "display": "MILLER, JOEY null"
                }
            }
        },
        {
            "resource": {
                "id": "Condition/3",
                "resourceType": "Condition",
                "status": "confirmed",
                "onsetDateTime": "2012-10-02",
                "dateAsserted": "2012-10-02",
                "code": {
                    "coding": [
                        {
                            "system": "http://snomed.info/sct",
                            "code": "10509002",
                            "display": "Acute bronchitis"
                        }
                    ],
                    "text": "Acute bronchitis"
                },
                "subject": {
                    "reference": "Patient/0",
                    "display": "MILLER, JOEY null"
                }
            }
        },
        {
            "resource": {
                "id": "Observation/4",
                "resourceType": "Observation",
                "code": {
                    "coding": [
                        {
                            "system": "http://loinc.org",
                            "code": "30954-2",
                            "display": "Results"
                        }
                    ],
                    "text": "Results"
                },
                "status": "final",
                "reliability": "ok",
                "interpretation": {
                    "coding": [
                        {
                            "system": "http://hl7.org/fhir/v2/0078",
                            "code": "N",
                            "display": "Normal"
                        }
                    ],
                    "text": "Normal"
                },
                "subject": {
                    "reference": "Patient/0",
                    "display": "MILLER, JOEY null"
                }
            }
        },
        {
            "resource": {
                "id": "Observation/5",
                "resourceType": "Observation",
                "code": {
                    "coding": [
                        {
                            "system": "urn:oid:2.16.840.1.113883.6.12",
                            "code": "99499",
                            "display": "No Procedure Performed"
                        }
                    ],
                    "text": "No Procedure Performed"
                },
                "status": "final",
                "reliability": "ok",
                "related": [
                    {
                        "type": "has-component",
                        "target": {
                            "reference": "Observation/4"
                        }
                    }
                ],
                "subject": {
                    "reference": "Patient/0",
                    "display": "MILLER, JOEY null"
                }
            }
        },
        {
            "resource": {
                "id": "MedicationPrescription/6",
                "resourceType": "MedicationPrescription",
                "status": "active",
                "dateWritten": "2015-05-03",
                "dosageInstruction": [
                    {
                        "timingPeriod": {
                            "start": "2015-05-03"
                        }
                    }
                ],
                "contained": [
                    {
                        "id": "med",
                        "resourceType": "Medication",
                        "name": "acetaminophen-aspirin buffered 250 mg-250 mg oral tablet",
                        "code": {
                            "coding": [
                                {
                                    "system": "http://www.nlm.nih.gov/research/umls/rxnorm",
                                    "code": "432638",
                                    "display": "acetaminophen-aspirin buffered 250 mg-250 mg oral tablet"
                                }
                            ],
                            "text": "acetaminophen-aspirin buffered 250 mg-250 mg oral tablet"
                        }
                    }
                ],
                "medication": {
                    "reference": "#med",
                    "display": "acetaminophen-aspirin buffered 250 mg-250 mg oral tablet"
                },
                "patient": {
                    "reference": "Patient/0",
                    "display": "MILLER, JOEY null"
                }
            }
        },
        {
            "resource": {
                "id": "MedicationAdministration/7",
                "resourceType": "MedicationAdministration",
                "status": "completed",
                "practitioner": {
                    "reference": "Practitioner/unknown",
                    "display": "Unknown"
                },
                "whenGiven": {
                    "start": "2015-05-03"
                },
                "dosage": [
                    {
                        "timingPeriod": {
                            "start": "2015-05-03"
                        }
                    }
                ],
                "prescription": {
                    "reference": "MedicationPrescription/6"
                },
                "contained": [
                    {
                        "id": "med",
                        "resourceType": "Medication",
                        "name": "acetaminophen-aspirin buffered 250 mg-250 mg oral tablet",
                        "code": {
                            "coding": [
                                {
                                    "system": "http://www.nlm.nih.gov/research/umls/rxnorm",
                                    "code": "432638",
                                    "display": "acetaminophen-aspirin buffered 250 mg-250 mg oral tablet"
                                }
                            ],
                            "text": "acetaminophen-aspirin buffered 250 mg-250 mg oral tablet"
                        }
                    }
                ],
                "medication": {
                    "reference": "#med",
                    "display": "acetaminophen-aspirin buffered 250 mg-250 mg oral tablet"
                },
                "patient": {
                    "reference": "Patient/0",
                    "display": "MILLER, JOEY null"
                }
            }
        }
    ]
}