{
    "resourceType": "Bundle",
    "total": 15,
    "entry": [
        {
            "resource": {
                "id": "Patient/0",
                "resourceType": "Patient",
                "identifier": [
                    {
                        "system": "urn:oid:2.16.840.1.113883.19",
                        "value": "28366080"
                    }
                ],
                "name": [
                    {
                        "family": [
                            "DEMO"
                        ],
                        "given": [
                            "MILLER"
                        ]
                    }
                ],
                "telecom": [
                    {
                        "system": "phone",
                        "value": "3108391111",
                        "use": "home"
                    }
                ],
                "gender": "male",
                "birthDate": "1947-10-10",
                "address": [
                    {
                        "use": "home",
                        "line": [
                            "26 N. Martin Street"
                        ],
                        "city": "Los Angeles",
                        "state": "CA",
                        "postalCode": "90005",
                        "country": "United States of America"
                    }
                ],
                "extension": [
                    {
                        "url": "http://hl7.org/fhir/StructureDefinition/us-core-race",
                        "valueCodeableConcept": {
                            "coding": [
                                {
                                    "system": "urn:oid:2.16.840.1.113883.6.238",
                                    "code": "2106-3",
                                    "display": "White"
                                }
                            ]
                        }
                    }
                ]
            }
        },
        {
            "resource": {
                "id": "Observation/1",
                "resourceType": "Observation",
                "code": {
                    "coding": [
                        {
                            "system": "http://loinc.org",
                            "code": "8302-2",
                            "display": "Height"
                        }
                    ],
                    "text": "Height"
                },
                "valueQuantity": {
                    "value": 71,
                    "units": "[in_us]",
                    "code": "[in_us]",
                    "system": "http://unitsofmeasure.org"
                },
                "issued": "2014-05-15",
                "status": "final",
                "reliability": "ok",
                "extension": [
                    {
                        "url": "http://amida.com/fhir/Profile/extensions#observation-type",
                        "valueCoding": {
                            "code": "8716-3",
                            "display": "Vital signs",
                            "system": "http://loinc.org"
                        }
                    }
                ],
                "interpretation": {
                    "coding": [
                        {
                            "system": "http://hl7.org/fhir/v2/0078",
                            "code": "N",
                            "display": "Normal"
                        }
                    ],
                    "text": "Normal"
                },
                "subject": {
                    "reference": "Patient/0",
                    "display": "DEMO, MILLER"
                }
            }
        },
        {
            "resource": {
                "id": "Observation/2",
                "resourceType": "Observation",
                "code": {
                    "coding": [
                        {
                            "system": "http://loinc.org",
                            "code": "3141-9",
                            "display": "Patient Body Weight - Measured"
                        }
                    ],
                    "text": "Patient Body Weight - Measured"
                },
                "valueQuantity": {
                    "value": 160,
                    "units": "[lb_av]",
                    "code": "[lb_av]",
                    "system": "http://unitsofmeasure.org"
                },
                "issued": "2014-05-15",
                "status": "final",
                "reliability": "ok",
                "extension": [
                    {
                        "url": "http://amida.com/fhir/Profile/extensions#observation-type",
                        "valueCoding": {
                            "code": "8716-3",
                            "display": "Vital signs",
                            "system": "http://loinc.org"
                        }
                    }
                ],
                "interpretation": {
                    "coding": [
                        {
                            "system": "http://hl7.org/fhir/v2/0078",
                            "code": "N",
                            "display": "Normal"
                        }
                    ],
                    "text": "Normal"
                },
                "subject": {
                    "reference": "Patient/0",
                    "display": "DEMO, MILLER"
                }
            }
        },
        {
            "resource": {
                "id": "Observation/3",
                "resourceType": "Observation",
                "code": {
                    "coding": [
                        {
                            "system": "http://loinc.org",
                            "code": "39156-5",
                            "display": "BMI (Body Mass Index)"
                        }
                    ],
                    "text": "BMI (Body Mass Index)"
                },
                "valueQuantity": {
                    "value": 22.32,
                    "units": "kg/m2",
                    "code": "kg/m2",
                    "system": "http://unitsofmeasure.org"
                },
                "issued": "2014-05-15",
                "status": "final",
                "reliability": "ok",
                "extension": [
                    {
                        "url": "http://amida.com/fhir/Profile/extensions#observation-type",
                        "valueCoding": {
                            "code": "8716-3",
                            "display": "Vital signs",
                            "system": "http://loinc.org"
                        }
                    }
                ],
                "interpretation": {
                    "coding": [
                        {
                            "system": "http://hl7.org/fhir/v2/0078",
                            "code": "N",
                            "display": "Normal"
                        }
                    ],
                    "text": "Normal"
                },
                "subject": {
                    "reference": "Patient/0",
                    "display": "DEMO, MILLER"
                }
            }
        },
        {
            "resource": {
                "id": "Observation/4",
                "resourceType": "Observation",
                "code": {
                    "coding": [
                        {
                            "system": "http://loinc.org",
                            "code": "8480-6",
                            "display": "BP Systolic"
                        }
                    ],
                    "text": "BP Systolic"
                },
                "valueQuantity": {
                    "value": 120,
                    "units": "mm[Hg]",
                    "code": "mm[Hg]",
                    "system": "http://unitsofmeasure.org"
                },
                "issued": "2014-05-15",
                "status": "final",
                "reliability": "ok",
                "extension": [
                    {
                        "url": "http://amida.com/fhir/Profile/extensions#observation-type",
                        "valueCoding": {
                            "code": "8716-3",
                            "display": "Vital signs",
                            "system": "http://loinc.org"
                        }
                    }
                ],
                "interpretation": {
                    "coding": [
                        {
                            "system": "http://hl7.org/fhir/v2/0078",
                            "code": "N",
                            "display": "Normal"
                        }
                    ],
                    "text": "Normal"
                },
                "subject": {
                    "reference": "Patient/0",
                    "display": "DEMO, MILLER"
                }
            }
        },
        {
            "resource": {
                "id": "Observation/5",
                "resourceType": "Observation",
                "code": {
                    "coding": [
                        {
                            "system": "http://loinc.org",
                            "code": "8462-4",
                            "display": "BP Diastolic"
                        }
                    ],
                    "text": "BP Diastolic"
                },
                "valueQuantity": {
                    "value": 0,
                    "units": "mm[Hg]",
                    "code": "mm[Hg]",
                    "system": "http://unitsofmeasure.org"
                },
                "issued": "2014-05-15",
                "status": "final",
                "reliability": "ok",
                "extension": [
                    {
                        "url": "http://amida.com/fhir/Profile/extensions#observation-type",
                        "valueCoding": {
                            "code": "8716-3",
                            "display": "Vital signs",
                            "system": "http://loinc.org"
                        }
                    }
                ],
                "interpretation": {
                    "coding": [
                        {
                            "system": "http://hl7.org/fhir/v2/0078",
                            "code": "N",
                            "display": "Normal"
                        }
                    ],
                    "text": "Normal"
                },
                "subject": {
                    "reference": "Patient/0",
                    "display": "DEMO, MILLER"
                }
            }
        },
        {
            "resource": {
                "id": "Observation/6",
                "resourceType": "Observation",
                "code": {
                    "coding": [
                        {
                            "system": "http://loinc.org",
                            "code": "55418-8",
                            "display": "Weight and Height tracking panel"
                        }
                    ],
                    "text": "Weight and Height tracking panel"
                },
                "issued": "2014-05-15",
                "status": "final",
                "reliability": "ok",
                "extension": [
                    {
                        "url": "http://amida.com/fhir/Profile/extensions#observation-type",
                        "valueCoding": {
                            "code": "8716-3",
                            "display": "Vital signs",
                            "system": "http://loinc.org"
                        }
                    }
                ],
                "related": [
                    {
                        "type": "has-component",
                        "target": {
                            "reference": "Observation/1"
                        }
                    },
                    {
                        "type": "has-component",
                        "target": {
                            "reference": "Observation/2"
                        }
                    },
                    {
                        "type": "has-component",
                        "target": {
                            "reference": "Observation/3"
                        }
                    }
                ],
                "subject": {
                    "reference": "Patient/0",
                    "display": "DEMO, MILLER"
                }
            }
        },
        {
            "resource": {
                "id": "Observation/7",
                "resourceType": "Observation",
                "code": {
                    "coding": [
                        {
                            "system": "http://loinc.org",
                            "code": "35094-2",
                            "display": "Blood pressure panel"
                        }
                    ],
                    "text": "Blood pressure panel"
                },
                "issued": "2014-05-15",
                "status": "final",
                "reliability": "ok",
                "extension": [
                    {
                        "url": "http://amida.com/fhir/Profile/extensions#observation-type",
                        "valueCoding": {
                            "code": "8716-3",
                            "display": "Vital signs",
                            "system": "http://loinc.org"
                        }
                    }
                ],
                "related": [
                    {
                        "type": "has-component",
                        "target": {
                            "reference": "Observation/4"
                        }
                    },
                    {
                        "type": "has-component",
                        "target": {
                            "reference": "Observation/5"
                        }
                    }
                ],
                "subject": {
                    "reference": "Patient/0",
                    "display": "DEMO, MILLER"
                }
            }
        },
        {
            "resource": {
                "id": "Condition/8",
                "resourceType": "Condition",
                "status": "confirmed",
                "onsetDate": "2012-08-05",
                "dateAsserted": "2012-08-05",
                "code": {
                    "coding": [
                        {
                            "system": "http://snomed.info/sct",
                            "code": "40930008",
                            "display": "Hypothyroidism"
                        }
                    ],
                    "text": "Hypothyroidism"
                },
                "subject": {
                    "reference": "Patient/0",
                    "display": "DEMO, MILLER"
                }
            }
        },
        {
            "resource": {
                "id": "Condition/9",
                "resourceType": "Condition",
                "status": "confirmed",
                "onsetDate": "2012-10-02",
                "dateAsserted": "2012-10-02",
                "code": {
                    "coding": [
                        {
                            "system": "http://snomed.info/sct",
                            "code": "10509002",
                            "display": "Acute bronchitis"
                        }
                    ],
                    "text": "Acute bronchitis"
                },
                "subject": {
                    "reference": "Patient/0",
                    "display": "DEMO, MILLER"
                }
            }
        },
        {
            "resource": {
                "id": "Observation/10",
                "resourceType": "Observation",
                "name": {
                    "coding": [
                        {
                            "system": "http://loinc.org",
                            "code": "26436-6",
                            "display": "Laboratory Studies"
                        }
                    ],
                    "text": "Laboratory Studies"
                },
                "status": "final",
                "reliability": "ok",
                "extension": [
                    {
                        "url": "http://amida.com/fhir/Profile/extensions#observation-type",
                        "valueCoding": {
                            "code": "11502-2",
                            "display": "Laboratory report",
                            "system": "http://loinc.org"
                        }
                    }
                ],
                "subject": {
                    "reference": "Patient/0",
                    "display": "DEMO, MILLER"
                }
            }
        },
        {
            "resource": {
                "id": "MedicationPrescription/11",
                "resourceType": "MedicationPrescription",
                "status": "active",
                "dateWritten": "2014-05-31",
                "dosageInstruction": [
                    {
                        "timingPeriod": {
                            "start": "2014-05-31"
                        }
                    }
                ],
                "text": {
                    "status": "generated",
                    "div": "acetaminophen-aspirin buffered 250 mg-250 mg oral tablet, [RxNorm: 432638]"
                },
                "contained": [
                    {
                        "id": "med",
                        "resourceType": "Medication",
                        "name": "acetaminophen-aspirin buffered 250 mg-250 mg oral tablet",
                        "code": {
                            "coding": [
                                {
                                    "system": "http://www.nlm.nih.gov/research/umls/rxnorm",
                                    "code": "432638",
                                    "display": "acetaminophen-aspirin buffered 250 mg-250 mg oral tablet"
                                }
                            ],
                            "text": "acetaminophen-aspirin buffered 250 mg-250 mg oral tablet"
                        }
                    }
                ],
                "medication": {
                    "reference": "#med",
                    "display": "acetaminophen-aspirin buffered 250 mg-250 mg oral tablet"
                },
                "patient": {
                    "reference": "Patient/0",
                    "display": "DEMO, MILLER"
                }
            }
        },
        {
            "resource": {
                "id": "MedicationAdministration/12",
                "resourceType": "MedicationAdministration",
                "status": "completed",
                "practitioner": {
                    "reference": "Practitioner/unknown",
                    "display": "Unknown"
                },
                "whenGiven": {
                    "start": "2014-05-31"
                },
                "dosage": [
                    {
                        "timingPeriod": {
                            "start": "2014-05-31"
                        }
                    }
                ],
                "prescription": {
                    "reference": "MedicationPrescription/11",
                    "display": "acetaminophen-aspirin buffered 250 mg-250 mg oral tablet, [RxNorm: 432638]"
                },
                "contained": [
                    {
                        "id": "med",
                        "resourceType": "Medication",
                        "name": "acetaminophen-aspirin buffered 250 mg-250 mg oral tablet",
                        "code": {
                            "coding": [
                                {
                                    "system": "http://www.nlm.nih.gov/research/umls/rxnorm",
                                    "code": "432638",
                                    "display": "acetaminophen-aspirin buffered 250 mg-250 mg oral tablet"
                                }
                            ],
                            "text": "acetaminophen-aspirin buffered 250 mg-250 mg oral tablet"
                        }
                    }
                ],
                "medication": {
                    "reference": "#med",
                    "display": "acetaminophen-aspirin buffered 250 mg-250 mg oral tablet"
                },
                "patient": {
                    "reference": "Patient/0",
                    "display": "DEMO, MILLER"
                }
            }
        },
        {
            "resource": {
                "id": "MedicationPrescription/13",
                "resourceType": "MedicationPrescription",
                "status": "active",
                "dateWritten": "2014-05-15",
                "dosageInstruction": [
                    {
                        "timingPeriod": {
                            "start": "2014-05-15",
                            "end": "2014-05-15"
                        }
                    }
                ],
                "text": {
                    "status": "generated",
                    "div": "Lipitor 10 mg oral tablet, [RxNorm: 617312]"
                },
                "contained": [
                    {
                        "id": "med",
                        "resourceType": "Medication",
                        "name": "Lipitor 10 mg oral tablet",
                        "code": {
                            "coding": [
                                {
                                    "system": "http://www.nlm.nih.gov/research/umls/rxnorm",
                                    "code": "617312",
                                    "display": "Lipitor 10 mg oral tablet"
                                }
                            ],
                            "text": "Lipitor 10 mg oral tablet"
                        }
                    }
                ],
                "medication": {
                    "reference": "#med",
                    "display": "Lipitor 10 mg oral tablet"
                },
                "patient": {
                    "reference": "Patient/0",
                    "display": "DEMO, MILLER"
                }
            }
        },
        {
            "resource": {
                "id": "MedicationAdministration/14",
                "resourceType": "MedicationAdministration",
                "status": "completed",
                "practitioner": {
                    "reference": "Practitioner/unknown",
                    "display": "Unknown"
                },
                "whenGiven": {
                    "start": "2014-05-15",
                    "end": "2014-05-15"
                },
                "dosage": [
                    {
                        "timingPeriod": {
                            "start": "2014-05-15",
                            "end": "2014-05-15"
                        }
                    }
                ],
                "prescription": {
                    "reference": "MedicationPrescription/13",
                    "display": "Lipitor 10 mg oral tablet, [RxNorm: 617312]"
                },
                "contained": [
                    {
                        "id": "med",
                        "resourceType": "Medication",
                        "name": "Lipitor 10 mg oral tablet",
                        "code": {
                            "coding": [
                                {
                                    "system": "http://www.nlm.nih.gov/research/umls/rxnorm",
                                    "code": "617312",
                                    "display": "Lipitor 10 mg oral tablet"
                                }
                            ],
                            "text": "Lipitor 10 mg oral tablet"
                        }
                    }
                ],
                "medication": {
                    "reference": "#med",
                    "display": "Lipitor 10 mg oral tablet"
                },
                "patient": {
                    "reference": "Patient/0",
                    "display": "DEMO, MILLER"
                }
            }
        }
    ]
}