{
    "resourceType": "Bundle",
    "totalResults": 37,
    "entry": [
        {
            "id": "Patient/some-id-here-1987",
            "content": {
                "resourceType": "Patient",
                "identifier": [
                    {
                        "system": "http://www.midea-tecg.com",
                        "value": "JOE_DOE_IDENTIFIER"
                    }
                ],
                "name": [
                    {
                        "family": [
                            "DOE"
                        ],
                        "given": [
                            "JOE"
                        ]
                    }
                ]
            }
        },
        {
            "id": "AdverseReaction/674ca7d8-a754-4ea4-b277-1b21f7af1dcb",
            "content": {
                "resourceType": "AdverseReaction",
                "symptom": [
                    {
                        "code": {
                            "coding": [
                                {
                                    "system": "http://snomed.info/sct",
                                    "code": "267036007",
                                    "display": "Shortness of Breath"
                                }
                            ],
                            "text": "Shortness of Breath"
                        }
                    }
                ],
                "didNotOccurFlag": false,
                "subject": {
                    "reference": "Patient/some-id-here-1987",
                    "display": "DOE, JOE"
                }
            }
        },
        {
            "id": "AllergyIntolerance/00aa2e9c-5da0-4243-b091-8246009a5986",
            "content": {
                "resourceType": "AllergyIntolerance",
                "sensitivityType": "allergy",
                "recordedDate": "2013-02-22",
                "status": "confirmed",
                "contained": [
                    {
                        "id": "allergen",
                        "resourceType": "Substance",
                        "type": {
                            "coding": [
                                {
                                    "system": "http://www.nlm.nih.gov/research/umls/rxnorm",
                                    "code": "2670",
                                    "display": "Codeine"
                                }
                            ],
                            "text": "Codeine"
                        }
                    }
                ],
                "substance": {
                    "reference": "#allergen",
                    "display": "Codeine"
                },
                "reaction": [
                    {
                        "reference": "AdverseReaction/674ca7d8-a754-4ea4-b277-1b21f7af1dcb",
                        "display": "Shortness of Breath"
                    }
                ],
                "subject": {
                    "reference": "Patient/some-id-here-1987",
                    "display": "DOE, JOE"
                }
            }
        },
        {
            "id": "AdverseReaction/007c3c94-e4d8-4f72-9d97-ad762fb3cf31",
            "content": {
                "resourceType": "AdverseReaction",
                "symptom": [
                    {
                        "code": {
                            "coding": [
                                {
                                    "system": "http://snomed.info/sct",
                                    "code": "247472004",
                                    "display": "Hives"
                                }
                            ],
                            "text": "Hives"
                        }
                    }
                ],
                "didNotOccurFlag": false,
                "subject": {
                    "reference": "Patient/some-id-here-1987",
                    "display": "DOE, JOE"
                }
            }
        },
        {
            "id": "AllergyIntolerance/1eaa66c2-0780-41de-b0b6-abd074c81ad8",
            "content": {
                "resourceType": "AllergyIntolerance",
                "sensitivityType": "allergy",
                "recordedDate": "2013-02-22",
                "status": "confirmed",
                "contained": [
                    {
                        "id": "allergen",
                        "resourceType": "Substance",
                        "type": {
                            "coding": [
                                {
                                    "system": "http://www.nlm.nih.gov/research/umls/rxnorm",
                                    "code": "1191",
                                    "display": "Aspirin"
                                }
                            ],
                            "text": "Aspirin"
                        }
                    }
                ],
                "substance": {
                    "reference": "#allergen",
                    "display": "Aspirin"
                },
                "reaction": [
                    {
                        "reference": "AdverseReaction/007c3c94-e4d8-4f72-9d97-ad762fb3cf31",
                        "display": "Hives"
                    }
                ],
                "subject": {
                    "reference": "Patient/some-id-here-1987",
                    "display": "DOE, JOE"
                }
            }
        },
        {
            "id": "Observation/5b3f09d7-4251-4f68-8fd7-c178d7858b13",
            "content": {
                "resourceType": "Observation",
                "name": {
                    "coding": [
                        {
                            "system": "http://loinc.org",
                            "code": "8480-6",
                            "display": "Systolic blood pressure"
                        }
                    ],
                    "text": "Systolic blood pressure"
                },
                "valueQuantity": {
                    "value": 135,
                    "units": "mm[Hg]",
                    "code": "mm[Hg]",
                    "system": "http://unitsofmeasure.org"
                },
                "issued": "2013-03-07",
                "status": "final",
                "reliability": "ok",
                "extension": [
                    {
                        "url": "http://amida.com/fhir/Profile/extensions#observation-type",
                        "valueCoding": {
                            "code": "8716-3",
                            "display": "Vital signs",
                            "system": "http://loinc.org"
                        }
                    }
                ],
                "subject": {
                    "reference": "Patient/some-id-here-1987",
                    "display": "DOE, JOE"
                }
            }
        },
        {
            "id": "Observation/598435ab-913f-4736-ada4-b6751059e40c",
            "content": {
                "resourceType": "Observation",
                "name": {
                    "coding": [
                        {
                            "system": "http://loinc.org",
                            "code": "8462-4",
                            "display": "Diastolic blood pressure"
                        }
                    ],
                    "text": "Diastolic blood pressure"
                },
                "valueQuantity": {
                    "value": 93,
                    "units": "mm[Hg]",
                    "code": "mm[Hg]",
                    "system": "http://unitsofmeasure.org"
                },
                "issued": "2013-03-07",
                "status": "final",
                "reliability": "ok",
                "extension": [
                    {
                        "url": "http://amida.com/fhir/Profile/extensions#observation-type",
                        "valueCoding": {
                            "code": "8716-3",
                            "display": "Vital signs",
                            "system": "http://loinc.org"
                        }
                    }
                ],
                "subject": {
                    "reference": "Patient/some-id-here-1987",
                    "display": "DOE, JOE"
                }
            }
        },
        {
            "id": "Observation/d22f55f0-ab0a-479c-9d2b-390f032950d7",
            "content": {
                "resourceType": "Observation",
                "name": {
                    "coding": [
                        {
                            "system": "http://loinc.org",
                            "code": "8302-2",
                            "display": "Body height"
                        }
                    ],
                    "text": "Body height"
                },
                "valueQuantity": {
                    "value": 177,
                    "units": "cm",
                    "code": "cm",
                    "system": "http://unitsofmeasure.org"
                },
                "issued": "2013-03-07",
                "status": "final",
                "reliability": "ok",
                "extension": [
                    {
                        "url": "http://amida.com/fhir/Profile/extensions#observation-type",
                        "valueCoding": {
                            "code": "8716-3",
                            "display": "Vital signs",
                            "system": "http://loinc.org"
                        }
                    }
                ],
                "subject": {
                    "reference": "Patient/some-id-here-1987",
                    "display": "DOE, JOE"
                }
            }
        },
        {
            "id": "Observation/79cb9354-af40-4d23-b446-29a4451268b1",
            "content": {
                "resourceType": "Observation",
                "name": {
                    "coding": [
                        {
                            "system": "http://loinc.org",
                            "code": "29463-7",
                            "display": "Body weight"
                        }
                    ],
                    "text": "Body weight"
                },
                "valueQuantity": {
                    "value": 89,
                    "units": "kg",
                    "code": "kg",
                    "system": "http://unitsofmeasure.org"
                },
                "issued": "2013-03-07",
                "status": "final",
                "reliability": "ok",
                "extension": [
                    {
                        "url": "http://amida.com/fhir/Profile/extensions#observation-type",
                        "valueCoding": {
                            "code": "8716-3",
                            "display": "Vital signs",
                            "system": "http://loinc.org"
                        }
                    }
                ],
                "subject": {
                    "reference": "Patient/some-id-here-1987",
                    "display": "DOE, JOE"
                }
            }
        },
        {
            "id": "Observation/ff4d1750-25b0-46f6-acfb-d9264e04a167",
            "content": {
                "resourceType": "Observation",
                "name": {
                    "coding": [
                        {
                            "system": "http://loinc.org",
                            "code": "39156-5",
                            "display": "BMI"
                        }
                    ],
                    "text": "BMI"
                },
                "valueQuantity": {
                    "value": 28.4,
                    "units": "kg/m2",
                    "code": "kg/m2",
                    "system": "http://unitsofmeasure.org"
                },
                "issued": "2013-03-07",
                "status": "final",
                "reliability": "ok",
                "extension": [
                    {
                        "url": "http://amida.com/fhir/Profile/extensions#observation-type",
                        "valueCoding": {
                            "code": "8716-3",
                            "display": "Vital signs",
                            "system": "http://loinc.org"
                        }
                    }
                ],
                "subject": {
                    "reference": "Patient/some-id-here-1987",
                    "display": "DOE, JOE"
                }
            }
        },
        {
            "id": "Observation/3fbc43b4-4045-4f0b-8bf5-48f2f9a8898b",
            "content": {
                "resourceType": "Observation",
                "name": {
                    "coding": [
                        {
                            "system": "http://loinc.org",
                            "code": "8480-6",
                            "display": "Systolic blood pressure"
                        }
                    ],
                    "text": "Systolic blood pressure"
                },
                "valueQuantity": {
                    "value": 135,
                    "units": "mm[Hg]",
                    "code": "mm[Hg]",
                    "system": "http://unitsofmeasure.org"
                },
                "issued": "2013-02-22",
                "status": "final",
                "reliability": "ok",
                "extension": [
                    {
                        "url": "http://amida.com/fhir/Profile/extensions#observation-type",
                        "valueCoding": {
                            "code": "8716-3",
                            "display": "Vital signs",
                            "system": "http://loinc.org"
                        }
                    }
                ],
                "subject": {
                    "reference": "Patient/some-id-here-1987",
                    "display": "DOE, JOE"
                }
            }
        },
        {
            "id": "Observation/063c18a4-b79e-4208-854f-aaac7beef197",
            "content": {
                "resourceType": "Observation",
                "name": {
                    "coding": [
                        {
                            "system": "http://loinc.org",
                            "code": "8462-4",
                            "display": "Diastolic blood pressure"
                        }
                    ],
                    "text": "Diastolic blood pressure"
                },
                "valueQuantity": {
                    "value": 92,
                    "units": "mm[Hg]",
                    "code": "mm[Hg]",
                    "system": "http://unitsofmeasure.org"
                },
                "issued": "2013-02-22",
                "status": "final",
                "reliability": "ok",
                "extension": [
                    {
                        "url": "http://amida.com/fhir/Profile/extensions#observation-type",
                        "valueCoding": {
                            "code": "8716-3",
                            "display": "Vital signs",
                            "system": "http://loinc.org"
                        }
                    }
                ],
                "subject": {
                    "reference": "Patient/some-id-here-1987",
                    "display": "DOE, JOE"
                }
            }
        },
        {
            "id": "Observation/61bc3953-e262-43fd-8190-15370b4b1158",
            "content": {
                "resourceType": "Observation",
                "name": {
                    "coding": [
                        {
                            "system": "http://loinc.org",
                            "code": "8302-2",
                            "display": "Body height"
                        }
                    ],
                    "text": "Body height"
                },
                "valueQuantity": {
                    "value": 177,
                    "units": "cm",
                    "code": "cm",
                    "system": "http://unitsofmeasure.org"
                },
                "issued": "2013-02-22",
                "status": "final",
                "reliability": "ok",
                "extension": [
                    {
                        "url": "http://amida.com/fhir/Profile/extensions#observation-type",
                        "valueCoding": {
                            "code": "8716-3",
                            "display": "Vital signs",
                            "system": "http://loinc.org"
                        }
                    }
                ],
                "subject": {
                    "reference": "Patient/some-id-here-1987",
                    "display": "DOE, JOE"
                }
            }
        },
        {
            "id": "Observation/a3964f48-adef-4f6f-8857-2c787cf9ba9b",
            "content": {
                "resourceType": "Observation",
                "name": {
                    "coding": [
                        {
                            "system": "http://loinc.org",
                            "code": "29463-7",
                            "display": "Body weight"
                        }
                    ],
                    "text": "Body weight"
                },
                "valueQuantity": {
                    "value": 88,
                    "units": "kg",
                    "code": "kg",
                    "system": "http://unitsofmeasure.org"
                },
                "issued": "2013-02-22",
                "status": "final",
                "reliability": "ok",
                "extension": [
                    {
                        "url": "http://amida.com/fhir/Profile/extensions#observation-type",
                        "valueCoding": {
                            "code": "8716-3",
                            "display": "Vital signs",
                            "system": "http://loinc.org"
                        }
                    }
                ],
                "subject": {
                    "reference": "Patient/some-id-here-1987",
                    "display": "DOE, JOE"
                }
            }
        },
        {
            "id": "Observation/3ec5aebf-aeb9-4566-a2b7-a84efbd11fd7",
            "content": {
                "resourceType": "Observation",
                "name": {
                    "coding": [
                        {
                            "system": "http://loinc.org",
                            "code": "39156-5",
                            "display": "BMI"
                        }
                    ],
                    "text": "BMI"
                },
                "valueQuantity": {
                    "value": 28.1,
                    "units": "kg/m2",
                    "code": "kg/m2",
                    "system": "http://unitsofmeasure.org"
                },
                "issued": "2013-02-22",
                "status": "final",
                "reliability": "ok",
                "extension": [
                    {
                        "url": "http://amida.com/fhir/Profile/extensions#observation-type",
                        "valueCoding": {
                            "code": "8716-3",
                            "display": "Vital signs",
                            "system": "http://loinc.org"
                        }
                    }
                ],
                "subject": {
                    "reference": "Patient/some-id-here-1987",
                    "display": "DOE, JOE"
                }
            }
        },
        {
            "id": "Observation/abf39cb6-63bb-4e2b-80a8-b11e5a7c5c47",
            "content": {
                "resourceType": "Observation",
                "name": {
                    "coding": [
                        {
                            "system": "http://loinc.org",
                            "code": "35094-2",
                            "display": "Blood pressure panel"
                        }
                    ],
                    "text": "Blood pressure panel"
                },
                "issued": "2013-02-22",
                "status": "final",
                "reliability": "ok",
                "extension": [
                    {
                        "url": "http://amida.com/fhir/Profile/extensions#observation-type",
                        "valueCoding": {
                            "code": "8716-3",
                            "display": "Vital signs",
                            "system": "http://loinc.org"
                        }
                    }
                ],
                "related": [
                    {
                        "type": "has-component",
                        "target": {
                            "reference": "Observation/3fbc43b4-4045-4f0b-8bf5-48f2f9a8898b"
                        }
                    },
                    {
                        "type": "has-component",
                        "target": {
                            "reference": "Observation/063c18a4-b79e-4208-854f-aaac7beef197"
                        }
                    }
                ],
                "subject": {
                    "reference": "Patient/some-id-here-1987",
                    "display": "DOE, JOE"
                }
            }
        },
        {
            "id": "Observation/181dfedd-ad35-467f-b8c8-4e4ab45fcfd0",
            "content": {
                "resourceType": "Observation",
                "name": {
                    "coding": [
                        {
                            "system": "http://loinc.org",
                            "code": "35094-2",
                            "display": "Blood pressure panel"
                        }
                    ],
                    "text": "Blood pressure panel"
                },
                "issued": "2013-03-07",
                "status": "final",
                "reliability": "ok",
                "extension": [
                    {
                        "url": "http://amida.com/fhir/Profile/extensions#observation-type",
                        "valueCoding": {
                            "code": "8716-3",
                            "display": "Vital signs",
                            "system": "http://loinc.org"
                        }
                    }
                ],
                "related": [
                    {
                        "type": "has-component",
                        "target": {
                            "reference": "Observation/5b3f09d7-4251-4f68-8fd7-c178d7858b13"
                        }
                    },
                    {
                        "type": "has-component",
                        "target": {
                            "reference": "Observation/598435ab-913f-4736-ada4-b6751059e40c"
                        }
                    }
                ],
                "subject": {
                    "reference": "Patient/some-id-here-1987",
                    "display": "DOE, JOE"
                }
            }
        },
        {
            "id": "Observation/96b5bfa7-4870-46ad-822b-8b20e8510c3c",
            "content": {
                "resourceType": "Observation",
                "name": {
                    "coding": [
                        {
                            "system": "http://loinc.org",
                            "code": "55418-8",
                            "display": "Weight and Height tracking panel"
                        }
                    ],
                    "text": "Weight and Height tracking panel"
                },
                "issued": "2013-02-22",
                "status": "final",
                "reliability": "ok",
                "extension": [
                    {
                        "url": "http://amida.com/fhir/Profile/extensions#observation-type",
                        "valueCoding": {
                            "code": "8716-3",
                            "display": "Vital signs",
                            "system": "http://loinc.org"
                        }
                    }
                ],
                "related": [
                    {
                        "type": "has-component",
                        "target": {
                            "reference": "Observation/61bc3953-e262-43fd-8190-15370b4b1158"
                        }
                    },
                    {
                        "type": "has-component",
                        "target": {
                            "reference": "Observation/a3964f48-adef-4f6f-8857-2c787cf9ba9b"
                        }
                    },
                    {
                        "type": "has-component",
                        "target": {
                            "reference": "Observation/3ec5aebf-aeb9-4566-a2b7-a84efbd11fd7"
                        }
                    }
                ],
                "subject": {
                    "reference": "Patient/some-id-here-1987",
                    "display": "DOE, JOE"
                }
            }
        },
        {
            "id": "Observation/2c978c26-39df-402c-a7f3-50766a9d89fa",
            "content": {
                "resourceType": "Observation",
                "name": {
                    "coding": [
                        {
                            "system": "http://loinc.org",
                            "code": "55418-8",
                            "display": "Weight and Height tracking panel"
                        }
                    ],
                    "text": "Weight and Height tracking panel"
                },
                "issued": "2013-03-07",
                "status": "final",
                "reliability": "ok",
                "extension": [
                    {
                        "url": "http://amida.com/fhir/Profile/extensions#observation-type",
                        "valueCoding": {
                            "code": "8716-3",
                            "display": "Vital signs",
                            "system": "http://loinc.org"
                        }
                    }
                ],
                "related": [
                    {
                        "type": "has-component",
                        "target": {
                            "reference": "Observation/d22f55f0-ab0a-479c-9d2b-390f032950d7"
                        }
                    },
                    {
                        "type": "has-component",
                        "target": {
                            "reference": "Observation/79cb9354-af40-4d23-b446-29a4451268b1"
                        }
                    },
                    {
                        "type": "has-component",
                        "target": {
                            "reference": "Observation/ff4d1750-25b0-46f6-acfb-d9264e04a167"
                        }
                    }
                ],
                "subject": {
                    "reference": "Patient/some-id-here-1987",
                    "display": "DOE, JOE"
                }
            }
        },
        {
            "id": "Condition/db4c7724-d8f0-4ca2-98cf-e0a45aa33bc9",
            "content": {
                "resourceType": "Condition",
                "status": "confirmed",
                "code": {
                    "coding": [
                        {
                            "system": "http://snomed.info/sct",
                            "code": "385093006",
                            "display": "Community acquired pneumonia"
                        }
                    ],
                    "text": "Community acquired pneumonia"
                },
                "subject": {
                    "reference": "Patient/some-id-here-1987",
                    "display": "DOE, JOE"
                }
            }
        },
        {
            "id": "Condition/5116606a-ed1d-4c9b-806b-412cfc1743e5",
            "content": {
                "resourceType": "Condition",
                "status": "confirmed",
                "code": {
                    "coding": [
                        {
                            "system": "http://snomed.info/sct",
                            "code": "195967001",
                            "display": "Asthma"
                        }
                    ],
                    "text": "Asthma"
                },
                "subject": {
                    "reference": "Patient/some-id-here-1987",
                    "display": "DOE, JOE"
                }
            }
        },
        {
            "id": "Condition/5a50983d-dc96-440a-b5a9-ea4bfcc160a8",
            "content": {
                "resourceType": "Condition",
                "status": "confirmed",
                "code": {
                    "coding": [
                        {
                            "code": "389087006",
                            "display": "Hypoxemia"
                        }
                    ],
                    "text": "Hypoxemia"
                },
                "subject": {
                    "reference": "Patient/some-id-here-1987",
                    "display": "DOE, JOE"
                }
            }
        },
        {
            "id": "Observation/97b55abc-e51d-4c3b-b69d-e58192f2335d",
            "content": {
                "resourceType": "Observation",
                "name": {
                    "coding": [
                        {
                            "system": "http://loinc.org",
                            "code": "6690-2",
                            "display": "Leukocytes [#/volume] in Blood by Automated count"
                        }
                    ],
                    "text": "Leukocytes [#/volume] in Blood by Automated count"
                },
                "valueQuantity": {
                    "value": 7.6,
                    "units": "K/uL",
                    "code": "K/uL",
                    "system": "http://unitsofmeasure.org"
                },
                "issued": "2013-02-22",
                "status": "final",
                "reliability": "ok",
                "extension": [
                    {
                        "url": "http://amida.com/fhir/Profile/extensions#observation-type",
                        "valueCoding": {
                            "code": "11502-2",
                            "display": "Laboratory report",
                            "system": "http://loinc.org"
                        }
                    }
                ],
                "referenceRange": [
                    {
                        "meaning": {
                            "coding": [
                                {
                                    "system": "http://hl7.org/fhir/referencerange-meaning",
                                    "code": "normal",
                                    "display": "Normal Range"
                                }
                            ],
                            "text": "Normal Range"
                        },
                        "text": "4-10 K/uL"
                    }
                ],
                "subject": {
                    "reference": "Patient/some-id-here-1987",
                    "display": "DOE, JOE"
                }
            }
        },
        {
            "id": "Observation/61c37b60-ce05-4445-9acb-740ea56deb06",
            "content": {
                "resourceType": "Observation",
                "name": {
                    "coding": [
                        {
                            "system": "http://loinc.org",
                            "code": "4544-3",
                            "display": "Hematocrit [Volume Fraction] of Blood by Automated count"
                        }
                    ],
                    "text": "Hematocrit [Volume Fraction] of Blood by Automated count"
                },
                "valueQuantity": {
                    "value": 45,
                    "units": "%",
                    "code": "%",
                    "system": "http://unitsofmeasure.org"
                },
                "issued": "2013-02-22",
                "status": "final",
                "reliability": "ok",
                "extension": [
                    {
                        "url": "http://amida.com/fhir/Profile/extensions#observation-type",
                        "valueCoding": {
                            "code": "11502-2",
                            "display": "Laboratory report",
                            "system": "http://loinc.org"
                        }
                    }
                ],
                "referenceRange": [
                    {
                        "meaning": {
                            "coding": [
                                {
                                    "system": "http://hl7.org/fhir/referencerange-meaning",
                                    "code": "normal",
                                    "display": "Normal Range"
                                }
                            ],
                            "text": "Normal Range"
                        },
                        "text": "40-54 %"
                    }
                ],
                "subject": {
                    "reference": "Patient/some-id-here-1987",
                    "display": "DOE, JOE"
                }
            }
        },
        {
            "id": "Observation/7e8db0be-8389-4272-975e-fe1a41ef7c3d",
            "content": {
                "resourceType": "Observation",
                "name": {
                    "coding": [
                        {
                            "system": "http://loinc.org",
                            "code": "718-7",
                            "display": "Hemoglobin [Mass/volume] in Blood"
                        }
                    ],
                    "text": "Hemoglobin [Mass/volume] in Blood"
                },
                "valueQuantity": {
                    "value": 14.2,
                    "units": "g/dL",
                    "code": "g/dL",
                    "system": "http://unitsofmeasure.org"
                },
                "issued": "2013-02-22",
                "status": "final",
                "reliability": "ok",
                "extension": [
                    {
                        "url": "http://amida.com/fhir/Profile/extensions#observation-type",
                        "valueCoding": {
                            "code": "11502-2",
                            "display": "Laboratory report",
                            "system": "http://loinc.org"
                        }
                    }
                ],
                "referenceRange": [
                    {
                        "meaning": {
                            "coding": [
                                {
                                    "system": "http://hl7.org/fhir/referencerange-meaning",
                                    "code": "normal",
                                    "display": "Normal Range"
                                }
                            ],
                            "text": "Normal Range"
                        },
                        "text": "13.5-18.0 g/dL"
                    }
                ],
                "subject": {
                    "reference": "Patient/some-id-here-1987",
                    "display": "DOE, JOE"
                }
            }
        },
        {
            "id": "Observation/6eac677e-150b-4787-adf4-86e84f95eb09",
            "content": {
                "resourceType": "Observation",
                "name": {
                    "coding": [
                        {
                            "system": "http://loinc.org",
                            "code": "789-8",
                            "display": "Erythrocytes [#/volume] in Blood by Automated count"
                        }
                    ],
                    "text": "Erythrocytes [#/volume] in Blood by Automated count"
                },
                "valueQuantity": {
                    "value": 3.65,
                    "units": "M/uL",
                    "code": "M/uL",
                    "system": "http://unitsofmeasure.org"
                },
                "issued": "2013-02-22",
                "status": "final",
                "reliability": "ok",
                "extension": [
                    {
                        "url": "http://amida.com/fhir/Profile/extensions#observation-type",
                        "valueCoding": {
                            "code": "11502-2",
                            "display": "Laboratory report",
                            "system": "http://loinc.org"
                        }
                    }
                ],
                "referenceRange": [
                    {
                        "meaning": {
                            "coding": [
                                {
                                    "system": "http://hl7.org/fhir/referencerange-meaning",
                                    "code": "normal",
                                    "display": "Normal Range"
                                }
                            ],
                            "text": "Normal Range"
                        },
                        "text": "4.5-6.4 M/uL"
                    }
                ],
                "subject": {
                    "reference": "Patient/some-id-here-1987",
                    "display": "DOE, JOE"
                }
            }
        },
        {
            "id": "Observation/3631a63a-6d17-426d-b847-bb5e6f1d54ca",
            "content": {
                "resourceType": "Observation",
                "name": {
                    "coding": [
                        {
                            "system": "http://loinc.org",
                            "code": "777-3",
                            "display": "Platelets [#/volume] in Blood by Automated count"
                        }
                    ],
                    "text": "Platelets [#/volume] in Blood by Automated count"
                },
                "valueQuantity": {
                    "value": 220,
                    "units": "K/uL",
                    "code": "K/uL",
                    "system": "http://unitsofmeasure.org"
                },
                "issued": "2013-02-22",
                "status": "final",
                "reliability": "ok",
                "extension": [
                    {
                        "url": "http://amida.com/fhir/Profile/extensions#observation-type",
                        "valueCoding": {
                            "code": "11502-2",
                            "display": "Laboratory report",
                            "system": "http://loinc.org"
                        }
                    }
                ],
                "referenceRange": [
                    {
                        "meaning": {
                            "coding": [
                                {
                                    "system": "http://hl7.org/fhir/referencerange-meaning",
                                    "code": "normal",
                                    "display": "Normal Range"
                                }
                            ],
                            "text": "Normal Range"
                        },
                        "text": "150-450 K/uL"
                    }
                ],
                "subject": {
                    "reference": "Patient/some-id-here-1987",
                    "display": "DOE, JOE"
                }
            }
        },
        {
            "id": "Observation/f1058239-b783-4d34-9e41-33c4e68b56a7",
            "content": {
                "resourceType": "Observation",
                "name": {
                    "coding": [
                        {
                            "system": "http://loinc.org",
                            "code": "787-2",
                            "display": "Erythrocyte mean corpuscular volume [Entitic volume] by Automated count"
                        }
                    ],
                    "text": "Erythrocyte mean corpuscular volume [Entitic volume] by Automated count"
                },
                "valueQuantity": {
                    "value": 97.5,
                    "units": "um3",
                    "code": "um3",
                    "system": "http://unitsofmeasure.org"
                },
                "issued": "2013-02-22",
                "status": "final",
                "reliability": "ok",
                "extension": [
                    {
                        "url": "http://amida.com/fhir/Profile/extensions#observation-type",
                        "valueCoding": {
                            "code": "11502-2",
                            "display": "Laboratory report",
                            "system": "http://loinc.org"
                        }
                    }
                ],
                "referenceRange": [
                    {
                        "meaning": {
                            "coding": [
                                {
                                    "system": "http://hl7.org/fhir/referencerange-meaning",
                                    "code": "normal",
                                    "display": "Normal Range"
                                }
                            ],
                            "text": "Normal Range"
                        },
                        "text": "80-95 um3"
                    }
                ],
                "subject": {
                    "reference": "Patient/some-id-here-1987",
                    "display": "DOE, JOE"
                }
            }
        },
        {
            "id": "Observation/30862948-9388-4e9d-97a4-06217a8a0c83",
            "content": {
                "resourceType": "Observation",
                "name": {
                    "coding": [
                        {
                            "system": "http://loinc.org",
                            "code": "785-6",
                            "display": "Erythrocyte mean corpuscular hemoglobin [Entitic mass] by Automated count"
                        }
                    ],
                    "text": "Erythrocyte mean corpuscular hemoglobin [Entitic mass] by Automated count"
                },
                "valueQuantity": {
                    "value": 33.7,
                    "units": "uug",
                    "code": "uug",
                    "system": "http://unitsofmeasure.org"
                },
                "issued": "2013-02-22",
                "status": "final",
                "reliability": "ok",
                "extension": [
                    {
                        "url": "http://amida.com/fhir/Profile/extensions#observation-type",
                        "valueCoding": {
                            "code": "11502-2",
                            "display": "Laboratory report",
                            "system": "http://loinc.org"
                        }
                    }
                ],
                "referenceRange": [
                    {
                        "meaning": {
                            "coding": [
                                {
                                    "system": "http://hl7.org/fhir/referencerange-meaning",
                                    "code": "normal",
                                    "display": "Normal Range"
                                }
                            ],
                            "text": "Normal Range"
                        },
                        "text": "27-32 uug"
                    }
                ],
                "subject": {
                    "reference": "Patient/some-id-here-1987",
                    "display": "DOE, JOE"
                }
            }
        },
        {
            "id": "Observation/e0c96de2-6b19-487f-844e-c88ed54017dc",
            "content": {
                "resourceType": "Observation",
                "name": {
                    "coding": [
                        {
                            "system": "http://loinc.org",
                            "code": "786-4",
                            "display": "Erythrocyte mean corpuscular hemoglobin concentration [Mass/volume] by Automated count"
                        }
                    ],
                    "text": "Erythrocyte mean corpuscular hemoglobin concentration [Mass/volume] by Automated count"
                },
                "valueQuantity": {
                    "value": 34.6,
                    "units": "g/dL",
                    "code": "g/dL",
                    "system": "http://unitsofmeasure.org"
                },
                "issued": "2013-02-22",
                "status": "final",
                "reliability": "ok",
                "extension": [
                    {
                        "url": "http://amida.com/fhir/Profile/extensions#observation-type",
                        "valueCoding": {
                            "code": "11502-2",
                            "display": "Laboratory report",
                            "system": "http://loinc.org"
                        }
                    }
                ],
                "referenceRange": [
                    {
                        "meaning": {
                            "coding": [
                                {
                                    "system": "http://hl7.org/fhir/referencerange-meaning",
                                    "code": "normal",
                                    "display": "Normal Range"
                                }
                            ],
                            "text": "Normal Range"
                        },
                        "text": "32-36 g/dL"
                    }
                ],
                "subject": {
                    "reference": "Patient/some-id-here-1987",
                    "display": "DOE, JOE"
                }
            }
        },
        {
            "id": "Observation/4490094f-7337-498c-98f7-712f7936a81e",
            "content": {
                "resourceType": "Observation",
                "name": {
                    "coding": [
                        {
                            "system": "http://loinc.org",
                            "code": "788-0",
                            "display": "Erythrocyte distribution width [Ratio] by Automated count"
                        }
                    ],
                    "text": "Erythrocyte distribution width [Ratio] by Automated count"
                },
                "valueQuantity": {
                    "value": 13.2,
                    "units": "%",
                    "code": "%",
                    "system": "http://unitsofmeasure.org"
                },
                "issued": "2013-02-22",
                "status": "final",
                "reliability": "ok",
                "extension": [
                    {
                        "url": "http://amida.com/fhir/Profile/extensions#observation-type",
                        "valueCoding": {
                            "code": "11502-2",
                            "display": "Laboratory report",
                            "system": "http://loinc.org"
                        }
                    }
                ],
                "referenceRange": [
                    {
                        "meaning": {
                            "coding": [
                                {
                                    "system": "http://hl7.org/fhir/referencerange-meaning",
                                    "code": "normal",
                                    "display": "Normal Range"
                                }
                            ],
                            "text": "Normal Range"
                        },
                        "text": "11.5-14.5 %"
                    }
                ],
                "subject": {
                    "reference": "Patient/some-id-here-1987",
                    "display": "DOE, JOE"
                }
            }
        },
        {
            "id": "Observation/cb52fe17-602c-4a42-94a2-ba6a3c13f9d8",
            "content": {
                "resourceType": "Observation",
                "name": {
                    "coding": [
                        {
                            "system": "http://loinc.org",
                            "code": "30392-5",
                            "display": "Nucleated erythrocytes [#/volume] in Blood"
                        }
                    ],
                    "text": "Nucleated erythrocytes [#/volume] in Blood"
                },
                "valueQuantity": {
                    "value": 0
                },
                "issued": "2013-02-22",
                "status": "final",
                "reliability": "ok",
                "extension": [
                    {
                        "url": "http://amida.com/fhir/Profile/extensions#observation-type",
                        "valueCoding": {
                            "code": "11502-2",
                            "display": "Laboratory report",
                            "system": "http://loinc.org"
                        }
                    }
                ],
                "referenceRange": [
                    {
                        "meaning": {
                            "coding": [
                                {
                                    "system": "http://hl7.org/fhir/referencerange-meaning",
                                    "code": "normal",
                                    "display": "Normal Range"
                                }
                            ],
                            "text": "Normal Range"
                        },
                        "text": "0.00-0.00"
                    }
                ],
                "subject": {
                    "reference": "Patient/some-id-here-1987",
                    "display": "DOE, JOE"
                }
            }
        },
        {
            "id": "Observation/825eac63-63b0-4502-ab3d-b142c814b89f",
            "content": {
                "resourceType": "Observation",
                "name": {
                    "coding": [
                        {
                            "system": "http://loinc.org",
                            "code": "26461-4",
                            "display": "Nucleated erythrocytes/100 erythrocytes in Blood"
                        }
                    ],
                    "text": "Nucleated erythrocytes/100 erythrocytes in Blood"
                },
                "valueQuantity": {
                    "value": 0
                },
                "issued": "2013-02-22",
                "status": "final",
                "reliability": "ok",
                "extension": [
                    {
                        "url": "http://amida.com/fhir/Profile/extensions#observation-type",
                        "valueCoding": {
                            "code": "11502-2",
                            "display": "Laboratory report",
                            "system": "http://loinc.org"
                        }
                    }
                ],
                "referenceRange": [
                    {
                        "meaning": {
                            "coding": [
                                {
                                    "system": "http://hl7.org/fhir/referencerange-meaning",
                                    "code": "normal",
                                    "display": "Normal Range"
                                }
                            ],
                            "text": "Normal Range"
                        },
                        "text": "0.0-0.0"
                    }
                ],
                "subject": {
                    "reference": "Patient/some-id-here-1987",
                    "display": "DOE, JOE"
                }
            }
        },
        {
            "id": "MedicationPrescription/48f31fad-75de-44a1-aaaa-52fe5cd3e1c3",
            "content": {
                "resourceType": "MedicationPrescription",
                "status": "active",
                "dateWritten": "2013-03-07",
                "dosageInstruction": [
                    {
                        "timingPeriod": {
                            "start": "2013-03-07"
                        }
                    }
                ],
                "text": {
                    "status": "generated",
                    "div": "ALBUTEROL INHALER HFA 90 MCG HFA AER AD"
                },
                "contained": [
                    {
                        "id": "med",
                        "resourceType": "Medication",
                        "name": "Albuterol 0.09 MG/ACTUAT Metered Dose Inhaler",
                        "code": {
                            "coding": [
                                {
                                    "system": "http://www.nlm.nih.gov/research/umls/rxnorm",
                                    "code": "1360201",
                                    "display": "Albuterol 0.09 MG/ACTUAT Metered Dose Inhaler"
                                }
                            ],
                            "text": "Albuterol 0.09 MG/ACTUAT Metered Dose Inhaler"
                        }
                    }
                ],
                "medication": {
                    "reference": "#med",
                    "display": "Albuterol 0.09 MG/ACTUAT Metered Dose Inhaler"
                },
                "patient": {
                    "reference": "Patient/some-id-here-1987",
                    "display": "DOE, JOE"
                }
            }
        },
        {
            "id": "MedicationAdministration/a8a40fd6-0a2f-4512-a223-fc273bf265c8",
            "content": {
                "resourceType": "MedicationAdministration",
                "status": "completed",
                "practitioner": {
                    "reference": "Practitioner/unknown",
                    "display": "Unknown"
                },
                "whenGiven": {
                    "start": "2013-03-07"
                },
                "dosage": [
                    {
                        "timingPeriod": {
                            "start": "2013-03-07"
                        }
                    }
                ],
                "prescription": {
                    "reference": "MedicationPrescription/48f31fad-75de-44a1-aaaa-52fe5cd3e1c3",
                    "display": "ALBUTEROL INHALER HFA 90 MCG HFA AER AD"
                },
                "contained": [
                    {
                        "id": "med",
                        "resourceType": "Medication",
                        "name": "Albuterol 0.09 MG/ACTUAT Metered Dose Inhaler",
                        "code": {
                            "coding": [
                                {
                                    "system": "http://www.nlm.nih.gov/research/umls/rxnorm",
                                    "code": "1360201",
                                    "display": "Albuterol 0.09 MG/ACTUAT Metered Dose Inhaler"
                                }
                            ],
                            "text": "Albuterol 0.09 MG/ACTUAT Metered Dose Inhaler"
                        }
                    }
                ],
                "medication": {
                    "reference": "#med",
                    "display": "Albuterol 0.09 MG/ACTUAT Metered Dose Inhaler"
                },
                "patient": {
                    "reference": "Patient/some-id-here-1987",
                    "display": "DOE, JOE"
                }
            }
        },
        {
            "id": "MedicationPrescription/d7803556-8918-4a85-b90c-ceb3f8efddca",
            "content": {
                "resourceType": "MedicationPrescription",
                "status": "active",
                "dateWritten": "2013-02-22",
                "dosageInstruction": [
                    {
                        "timingPeriod": {
                            "start": "2013-02-22",
                            "end": "2013-03-01"
                        }
                    }
                ],
                "text": {
                    "status": "generated",
                    "div": "CLARITHROMYCIN 500 MG TABLET"
                },
                "contained": [
                    {
                        "id": "med",
                        "resourceType": "Medication",
                        "name": "Clarithromycin 500 MG Oral Tablet",
                        "code": {
                            "coding": [
                                {
                                    "system": "http://www.nlm.nih.gov/research/umls/rxnorm",
                                    "code": "197517",
                                    "display": "Clarithromycin 500 MG Oral Tablet"
                                }
                            ],
                            "text": "Clarithromycin 500 MG Oral Tablet"
                        }
                    }
                ],
                "medication": {
                    "reference": "#med",
                    "display": "Clarithromycin 500 MG Oral Tablet"
                },
                "patient": {
                    "reference": "Patient/some-id-here-1987",
                    "display": "DOE, JOE"
                }
            }
        },
        {
            "id": "MedicationAdministration/edc69e42-0c95-4236-94e5-6ff007983f5c",
            "content": {
                "resourceType": "MedicationAdministration",
                "status": "completed",
                "practitioner": {
                    "reference": "Practitioner/unknown",
                    "display": "Unknown"
                },
                "whenGiven": {
                    "start": "2013-02-22",
                    "end": "2013-03-01"
                },
                "dosage": [
                    {
                        "timingPeriod": {
                            "start": "2013-02-22",
                            "end": "2013-03-01"
                        }
                    }
                ],
                "prescription": {
                    "reference": "MedicationPrescription/d7803556-8918-4a85-b90c-ceb3f8efddca",
                    "display": "CLARITHROMYCIN 500 MG TABLET"
                },
                "contained": [
                    {
                        "id": "med",
                        "resourceType": "Medication",
                        "name": "Clarithromycin 500 MG Oral Tablet",
                        "code": {
                            "coding": [
                                {
                                    "system": "http://www.nlm.nih.gov/research/umls/rxnorm",
                                    "code": "197517",
                                    "display": "Clarithromycin 500 MG Oral Tablet"
                                }
                            ],
                            "text": "Clarithromycin 500 MG Oral Tablet"
                        }
                    }
                ],
                "medication": {
                    "reference": "#med",
                    "display": "Clarithromycin 500 MG Oral Tablet"
                },
                "patient": {
                    "reference": "Patient/some-id-here-1987",
                    "display": "DOE, JOE"
                }
            }
        }
    ]
}