{
    "resourceType": "Bundle",
    "totalResults": 36,
    "entry": [
        {
            "id": "AdverseReaction/696a568b-24b3-4e33-bf3d-e58da5c26746",
            "content": {
                "resourceType": "AdverseReaction",
                "symptom": [
                    {
                        "code": {
                            "coding": [
                                {
                                    "system": "http://snomed.info/sct",
                                    "code": "267036007",
                                    "display": "Shortness of Breath"
                                }
                            ],
                            "text": "Shortness of Breath"
                        }
                    }
                ],
                "didNotOccurFlag": false
            }
        },
        {
            "id": "AllergyIntolerance/2e553121-1e23-4940-8093-61c75ea5b147",
            "content": {
                "resourceType": "AllergyIntolerance",
                "sensitivityType": "allergy",
                "recordedDate": "2013-02-22",
                "status": "confirmed",
                "contained": [
                    {
                        "id": "allergen",
                        "resourceType": "Substance",
                        "type": {
                            "coding": [
                                {
                                    "system": "http://www.nlm.nih.gov/research/umls/rxnorm",
                                    "code": "2670",
                                    "display": "Codeine"
                                }
                            ],
                            "text": "Codeine"
                        }
                    }
                ],
                "substance": {
                    "reference": "#allergen",
                    "display": "Codeine"
                },
                "reaction": [
                    {
                        "reference": "AdverseReaction/696a568b-24b3-4e33-bf3d-e58da5c26746",
                        "display": "Shortness of Breath"
                    }
                ]
            }
        },
        {
            "id": "AdverseReaction/b42cfca7-252d-4c8e-b359-c923fdb75dd5",
            "content": {
                "resourceType": "AdverseReaction",
                "symptom": [
                    {
                        "code": {
                            "coding": [
                                {
                                    "system": "http://snomed.info/sct",
                                    "code": "247472004",
                                    "display": "Hives"
                                }
                            ],
                            "text": "Hives"
                        }
                    }
                ],
                "didNotOccurFlag": false
            }
        },
        {
            "id": "AllergyIntolerance/eb63987a-228c-4c70-835a-dba1e2c24dc8",
            "content": {
                "resourceType": "AllergyIntolerance",
                "sensitivityType": "allergy",
                "recordedDate": "2013-02-22",
                "status": "confirmed",
                "contained": [
                    {
                        "id": "allergen",
                        "resourceType": "Substance",
                        "type": {
                            "coding": [
                                {
                                    "system": "http://www.nlm.nih.gov/research/umls/rxnorm",
                                    "code": "1191",
                                    "display": "Aspirin"
                                }
                            ],
                            "text": "Aspirin"
                        }
                    }
                ],
                "substance": {
                    "reference": "#allergen",
                    "display": "Aspirin"
                },
                "reaction": [
                    {
                        "reference": "AdverseReaction/b42cfca7-252d-4c8e-b359-c923fdb75dd5",
                        "display": "Hives"
                    }
                ]
            }
        },
        {
            "id": "Observation/9597e7c7-78dd-4653-9fc7-580b25cdbc3c",
            "content": {
                "resourceType": "Observation",
                "name": {
                    "coding": [
                        {
                            "system": "http://loinc.org",
                            "code": "8480-6",
                            "display": "Systolic blood pressure"
                        }
                    ],
                    "text": "Systolic blood pressure"
                },
                "valueQuantity": {
                    "value": 135,
                    "units": "mm[Hg]",
                    "code": "mm[Hg]",
                    "system": "http://unitsofmeasure.org"
                },
                "issued": "2013-03-07",
                "status": "final",
                "reliability": "ok",
                "extension": [
                    {
                        "url": "http://amida.com/fhir/Profile/extensions#observation-type",
                        "valueCoding": {
                            "code": "8716-3",
                            "display": "Vital signs",
                            "system": "http://loinc.org"
                        }
                    }
                ]
            }
        },
        {
            "id": "Observation/50364efb-ac58-4214-8961-2bb32af111eb",
            "content": {
                "resourceType": "Observation",
                "name": {
                    "coding": [
                        {
                            "system": "http://loinc.org",
                            "code": "8462-4",
                            "display": "Diastolic blood pressure"
                        }
                    ],
                    "text": "Diastolic blood pressure"
                },
                "valueQuantity": {
                    "value": 93,
                    "units": "mm[Hg]",
                    "code": "mm[Hg]",
                    "system": "http://unitsofmeasure.org"
                },
                "issued": "2013-03-07",
                "status": "final",
                "reliability": "ok",
                "extension": [
                    {
                        "url": "http://amida.com/fhir/Profile/extensions#observation-type",
                        "valueCoding": {
                            "code": "8716-3",
                            "display": "Vital signs",
                            "system": "http://loinc.org"
                        }
                    }
                ]
            }
        },
        {
            "id": "Observation/b6d5cd95-7ebd-4f1e-bc11-929c4c744236",
            "content": {
                "resourceType": "Observation",
                "name": {
                    "coding": [
                        {
                            "system": "http://loinc.org",
                            "code": "8302-2",
                            "display": "Body height"
                        }
                    ],
                    "text": "Body height"
                },
                "valueQuantity": {
                    "value": 177,
                    "units": "cm",
                    "code": "cm",
                    "system": "http://unitsofmeasure.org"
                },
                "issued": "2013-03-07",
                "status": "final",
                "reliability": "ok",
                "extension": [
                    {
                        "url": "http://amida.com/fhir/Profile/extensions#observation-type",
                        "valueCoding": {
                            "code": "8716-3",
                            "display": "Vital signs",
                            "system": "http://loinc.org"
                        }
                    }
                ]
            }
        },
        {
            "id": "Observation/c7f1a4bd-1c9b-4dbc-aa1e-ae2c398bef46",
            "content": {
                "resourceType": "Observation",
                "name": {
                    "coding": [
                        {
                            "system": "http://loinc.org",
                            "code": "29463-7",
                            "display": "Body weight"
                        }
                    ],
                    "text": "Body weight"
                },
                "valueQuantity": {
                    "value": 89,
                    "units": "kg",
                    "code": "kg",
                    "system": "http://unitsofmeasure.org"
                },
                "issued": "2013-03-07",
                "status": "final",
                "reliability": "ok",
                "extension": [
                    {
                        "url": "http://amida.com/fhir/Profile/extensions#observation-type",
                        "valueCoding": {
                            "code": "8716-3",
                            "display": "Vital signs",
                            "system": "http://loinc.org"
                        }
                    }
                ]
            }
        },
        {
            "id": "Observation/2d40275a-ce70-436f-8cac-0de24e9f3c12",
            "content": {
                "resourceType": "Observation",
                "name": {
                    "coding": [
                        {
                            "system": "http://loinc.org",
                            "code": "39156-5",
                            "display": "BMI"
                        }
                    ],
                    "text": "BMI"
                },
                "valueQuantity": {
                    "value": 28.4,
                    "units": "kg/m2",
                    "code": "kg/m2",
                    "system": "http://unitsofmeasure.org"
                },
                "issued": "2013-03-07",
                "status": "final",
                "reliability": "ok",
                "extension": [
                    {
                        "url": "http://amida.com/fhir/Profile/extensions#observation-type",
                        "valueCoding": {
                            "code": "8716-3",
                            "display": "Vital signs",
                            "system": "http://loinc.org"
                        }
                    }
                ]
            }
        },
        {
            "id": "Observation/1c5dac03-124a-4396-a835-b7ecf085e094",
            "content": {
                "resourceType": "Observation",
                "name": {
                    "coding": [
                        {
                            "system": "http://loinc.org",
                            "code": "8480-6",
                            "display": "Systolic blood pressure"
                        }
                    ],
                    "text": "Systolic blood pressure"
                },
                "valueQuantity": {
                    "value": 135,
                    "units": "mm[Hg]",
                    "code": "mm[Hg]",
                    "system": "http://unitsofmeasure.org"
                },
                "issued": "2013-02-22",
                "status": "final",
                "reliability": "ok",
                "extension": [
                    {
                        "url": "http://amida.com/fhir/Profile/extensions#observation-type",
                        "valueCoding": {
                            "code": "8716-3",
                            "display": "Vital signs",
                            "system": "http://loinc.org"
                        }
                    }
                ]
            }
        },
        {
            "id": "Observation/f4489b96-e136-4226-a583-8035a2edd988",
            "content": {
                "resourceType": "Observation",
                "name": {
                    "coding": [
                        {
                            "system": "http://loinc.org",
                            "code": "8462-4",
                            "display": "Diastolic blood pressure"
                        }
                    ],
                    "text": "Diastolic blood pressure"
                },
                "valueQuantity": {
                    "value": 92,
                    "units": "mm[Hg]",
                    "code": "mm[Hg]",
                    "system": "http://unitsofmeasure.org"
                },
                "issued": "2013-02-22",
                "status": "final",
                "reliability": "ok",
                "extension": [
                    {
                        "url": "http://amida.com/fhir/Profile/extensions#observation-type",
                        "valueCoding": {
                            "code": "8716-3",
                            "display": "Vital signs",
                            "system": "http://loinc.org"
                        }
                    }
                ]
            }
        },
        {
            "id": "Observation/74c557ad-88c6-4c86-9b70-09d3b68525cf",
            "content": {
                "resourceType": "Observation",
                "name": {
                    "coding": [
                        {
                            "system": "http://loinc.org",
                            "code": "8302-2",
                            "display": "Body height"
                        }
                    ],
                    "text": "Body height"
                },
                "valueQuantity": {
                    "value": 177,
                    "units": "cm",
                    "code": "cm",
                    "system": "http://unitsofmeasure.org"
                },
                "issued": "2013-02-22",
                "status": "final",
                "reliability": "ok",
                "extension": [
                    {
                        "url": "http://amida.com/fhir/Profile/extensions#observation-type",
                        "valueCoding": {
                            "code": "8716-3",
                            "display": "Vital signs",
                            "system": "http://loinc.org"
                        }
                    }
                ]
            }
        },
        {
            "id": "Observation/5ad1f2d0-c49a-4e30-88e8-327cbb3825f6",
            "content": {
                "resourceType": "Observation",
                "name": {
                    "coding": [
                        {
                            "system": "http://loinc.org",
                            "code": "29463-7",
                            "display": "Body weight"
                        }
                    ],
                    "text": "Body weight"
                },
                "valueQuantity": {
                    "value": 88,
                    "units": "kg",
                    "code": "kg",
                    "system": "http://unitsofmeasure.org"
                },
                "issued": "2013-02-22",
                "status": "final",
                "reliability": "ok",
                "extension": [
                    {
                        "url": "http://amida.com/fhir/Profile/extensions#observation-type",
                        "valueCoding": {
                            "code": "8716-3",
                            "display": "Vital signs",
                            "system": "http://loinc.org"
                        }
                    }
                ]
            }
        },
        {
            "id": "Observation/e984d810-8d16-487a-9ad2-b94417967517",
            "content": {
                "resourceType": "Observation",
                "name": {
                    "coding": [
                        {
                            "system": "http://loinc.org",
                            "code": "39156-5",
                            "display": "BMI"
                        }
                    ],
                    "text": "BMI"
                },
                "valueQuantity": {
                    "value": 28.1,
                    "units": "kg/m2",
                    "code": "kg/m2",
                    "system": "http://unitsofmeasure.org"
                },
                "issued": "2013-02-22",
                "status": "final",
                "reliability": "ok",
                "extension": [
                    {
                        "url": "http://amida.com/fhir/Profile/extensions#observation-type",
                        "valueCoding": {
                            "code": "8716-3",
                            "display": "Vital signs",
                            "system": "http://loinc.org"
                        }
                    }
                ]
            }
        },
        {
            "id": "Observation/59c046c0-2234-4150-990a-f21de96bcc45",
            "content": {
                "resourceType": "Observation",
                "name": {
                    "coding": [
                        {
                            "system": "http://loinc.org",
                            "code": "35094-2",
                            "display": "Blood pressure panel"
                        }
                    ],
                    "text": "Blood pressure panel"
                },
                "issued": "2013-02-22",
                "status": "final",
                "reliability": "ok",
                "extension": [
                    {
                        "url": "http://amida.com/fhir/Profile/extensions#observation-type",
                        "valueCoding": {
                            "code": "8716-3",
                            "display": "Vital signs",
                            "system": "http://loinc.org"
                        }
                    }
                ],
                "related": [
                    {
                        "type": "has-component",
                        "target": {
                            "reference": "Observation/1c5dac03-124a-4396-a835-b7ecf085e094"
                        }
                    },
                    {
                        "type": "has-component",
                        "target": {
                            "reference": "Observation/f4489b96-e136-4226-a583-8035a2edd988"
                        }
                    }
                ]
            }
        },
        {
            "id": "Observation/17aba3c6-853e-4730-90d5-97b3ef2a06da",
            "content": {
                "resourceType": "Observation",
                "name": {
                    "coding": [
                        {
                            "system": "http://loinc.org",
                            "code": "35094-2",
                            "display": "Blood pressure panel"
                        }
                    ],
                    "text": "Blood pressure panel"
                },
                "issued": "2013-03-07",
                "status": "final",
                "reliability": "ok",
                "extension": [
                    {
                        "url": "http://amida.com/fhir/Profile/extensions#observation-type",
                        "valueCoding": {
                            "code": "8716-3",
                            "display": "Vital signs",
                            "system": "http://loinc.org"
                        }
                    }
                ],
                "related": [
                    {
                        "type": "has-component",
                        "target": {
                            "reference": "Observation/9597e7c7-78dd-4653-9fc7-580b25cdbc3c"
                        }
                    },
                    {
                        "type": "has-component",
                        "target": {
                            "reference": "Observation/50364efb-ac58-4214-8961-2bb32af111eb"
                        }
                    }
                ]
            }
        },
        {
            "id": "Observation/a492693d-877f-4f8c-b135-e63d23cd687d",
            "content": {
                "resourceType": "Observation",
                "name": {
                    "coding": [
                        {
                            "system": "http://loinc.org",
                            "code": "55418-8",
                            "display": "Weight and Height tracking panel"
                        }
                    ],
                    "text": "Weight and Height tracking panel"
                },
                "issued": "2013-02-22",
                "status": "final",
                "reliability": "ok",
                "extension": [
                    {
                        "url": "http://amida.com/fhir/Profile/extensions#observation-type",
                        "valueCoding": {
                            "code": "8716-3",
                            "display": "Vital signs",
                            "system": "http://loinc.org"
                        }
                    }
                ],
                "related": [
                    {
                        "type": "has-component",
                        "target": {
                            "reference": "Observation/74c557ad-88c6-4c86-9b70-09d3b68525cf"
                        }
                    },
                    {
                        "type": "has-component",
                        "target": {
                            "reference": "Observation/5ad1f2d0-c49a-4e30-88e8-327cbb3825f6"
                        }
                    },
                    {
                        "type": "has-component",
                        "target": {
                            "reference": "Observation/e984d810-8d16-487a-9ad2-b94417967517"
                        }
                    }
                ]
            }
        },
        {
            "id": "Observation/ad605140-e4b4-43c5-8d68-104a457f9241",
            "content": {
                "resourceType": "Observation",
                "name": {
                    "coding": [
                        {
                            "system": "http://loinc.org",
                            "code": "55418-8",
                            "display": "Weight and Height tracking panel"
                        }
                    ],
                    "text": "Weight and Height tracking panel"
                },
                "issued": "2013-03-07",
                "status": "final",
                "reliability": "ok",
                "extension": [
                    {
                        "url": "http://amida.com/fhir/Profile/extensions#observation-type",
                        "valueCoding": {
                            "code": "8716-3",
                            "display": "Vital signs",
                            "system": "http://loinc.org"
                        }
                    }
                ],
                "related": [
                    {
                        "type": "has-component",
                        "target": {
                            "reference": "Observation/b6d5cd95-7ebd-4f1e-bc11-929c4c744236"
                        }
                    },
                    {
                        "type": "has-component",
                        "target": {
                            "reference": "Observation/c7f1a4bd-1c9b-4dbc-aa1e-ae2c398bef46"
                        }
                    },
                    {
                        "type": "has-component",
                        "target": {
                            "reference": "Observation/2d40275a-ce70-436f-8cac-0de24e9f3c12"
                        }
                    }
                ]
            }
        },
        {
            "id": "Condition/ff14cf27-147b-4639-8cc7-503b59a91872",
            "content": {
                "resourceType": "Condition",
                "status": "confirmed",
                "code": {
                    "coding": [
                        {
                            "system": "http://snomed.info/sct",
                            "code": "385093006",
                            "display": "Community acquired pneumonia"
                        }
                    ],
                    "text": "Community acquired pneumonia"
                }
            }
        },
        {
            "id": "Condition/3badb25a-d59c-4e17-a03c-e6a972f40210",
            "content": {
                "resourceType": "Condition",
                "status": "confirmed",
                "code": {
                    "coding": [
                        {
                            "system": "http://snomed.info/sct",
                            "code": "195967001",
                            "display": "Asthma"
                        }
                    ],
                    "text": "Asthma"
                }
            }
        },
        {
            "id": "Condition/4e36ebcf-3571-433e-94a5-896c76855b73",
            "content": {
                "resourceType": "Condition",
                "status": "confirmed",
                "code": {
                    "coding": [
                        {
                            "code": "389087006",
                            "display": "Hypoxemia"
                        }
                    ],
                    "text": "Hypoxemia"
                }
            }
        },
        {
            "id": "Observation/46663ad4-879f-4e5c-8520-7b463082b99f",
            "content": {
                "resourceType": "Observation",
                "name": {
                    "coding": [
                        {
                            "system": "http://loinc.org",
                            "code": "6690-2",
                            "display": "Leukocytes [#/volume] in Blood by Automated count"
                        }
                    ],
                    "text": "Leukocytes [#/volume] in Blood by Automated count"
                },
                "valueQuantity": {
                    "value": 7.6,
                    "units": "K/uL",
                    "code": "K/uL",
                    "system": "http://unitsofmeasure.org"
                },
                "issued": "2013-02-22",
                "status": "final",
                "reliability": "ok",
                "extension": [
                    {
                        "url": "http://amida.com/fhir/Profile/extensions#observation-type",
                        "valueCoding": {
                            "code": "11502-2",
                            "display": "Laboratory report",
                            "system": "http://loinc.org"
                        }
                    }
                ],
                "referenceRange": [
                    {
                        "meaning": {
                            "coding": [
                                {
                                    "system": "http://hl7.org/fhir/referencerange-meaning",
                                    "code": "normal",
                                    "display": "Normal Range"
                                }
                            ],
                            "text": "Normal Range"
                        },
                        "text": "4-10 K/uL"
                    }
                ]
            }
        },
        {
            "id": "Observation/5c3d3994-8e97-42dd-b50f-9a7de1cc9315",
            "content": {
                "resourceType": "Observation",
                "name": {
                    "coding": [
                        {
                            "system": "http://loinc.org",
                            "code": "4544-3",
                            "display": "Hematocrit [Volume Fraction] of Blood by Automated count"
                        }
                    ],
                    "text": "Hematocrit [Volume Fraction] of Blood by Automated count"
                },
                "valueQuantity": {
                    "value": 45,
                    "units": "%",
                    "code": "%",
                    "system": "http://unitsofmeasure.org"
                },
                "issued": "2013-02-22",
                "status": "final",
                "reliability": "ok",
                "extension": [
                    {
                        "url": "http://amida.com/fhir/Profile/extensions#observation-type",
                        "valueCoding": {
                            "code": "11502-2",
                            "display": "Laboratory report",
                            "system": "http://loinc.org"
                        }
                    }
                ],
                "referenceRange": [
                    {
                        "meaning": {
                            "coding": [
                                {
                                    "system": "http://hl7.org/fhir/referencerange-meaning",
                                    "code": "normal",
                                    "display": "Normal Range"
                                }
                            ],
                            "text": "Normal Range"
                        },
                        "text": "40-54 %"
                    }
                ]
            }
        },
        {
            "id": "Observation/12ae1c65-4425-4963-bb06-20382d6a598d",
            "content": {
                "resourceType": "Observation",
                "name": {
                    "coding": [
                        {
                            "system": "http://loinc.org",
                            "code": "718-7",
                            "display": "Hemoglobin [Mass/volume] in Blood"
                        }
                    ],
                    "text": "Hemoglobin [Mass/volume] in Blood"
                },
                "valueQuantity": {
                    "value": 14.2,
                    "units": "g/dL",
                    "code": "g/dL",
                    "system": "http://unitsofmeasure.org"
                },
                "issued": "2013-02-22",
                "status": "final",
                "reliability": "ok",
                "extension": [
                    {
                        "url": "http://amida.com/fhir/Profile/extensions#observation-type",
                        "valueCoding": {
                            "code": "11502-2",
                            "display": "Laboratory report",
                            "system": "http://loinc.org"
                        }
                    }
                ],
                "referenceRange": [
                    {
                        "meaning": {
                            "coding": [
                                {
                                    "system": "http://hl7.org/fhir/referencerange-meaning",
                                    "code": "normal",
                                    "display": "Normal Range"
                                }
                            ],
                            "text": "Normal Range"
                        },
                        "text": "13.5-18.0 g/dL"
                    }
                ]
            }
        },
        {
            "id": "Observation/367ff948-964f-4d5a-bdd4-05bb44482ef1",
            "content": {
                "resourceType": "Observation",
                "name": {
                    "coding": [
                        {
                            "system": "http://loinc.org",
                            "code": "789-8",
                            "display": "Erythrocytes [#/volume] in Blood by Automated count"
                        }
                    ],
                    "text": "Erythrocytes [#/volume] in Blood by Automated count"
                },
                "valueQuantity": {
                    "value": 3.65,
                    "units": "M/uL",
                    "code": "M/uL",
                    "system": "http://unitsofmeasure.org"
                },
                "issued": "2013-02-22",
                "status": "final",
                "reliability": "ok",
                "extension": [
                    {
                        "url": "http://amida.com/fhir/Profile/extensions#observation-type",
                        "valueCoding": {
                            "code": "11502-2",
                            "display": "Laboratory report",
                            "system": "http://loinc.org"
                        }
                    }
                ],
                "referenceRange": [
                    {
                        "meaning": {
                            "coding": [
                                {
                                    "system": "http://hl7.org/fhir/referencerange-meaning",
                                    "code": "normal",
                                    "display": "Normal Range"
                                }
                            ],
                            "text": "Normal Range"
                        },
                        "text": "4.5-6.4 M/uL"
                    }
                ]
            }
        },
        {
            "id": "Observation/f02ef0b5-b83c-4d0f-b281-7596b7561ad6",
            "content": {
                "resourceType": "Observation",
                "name": {
                    "coding": [
                        {
                            "system": "http://loinc.org",
                            "code": "777-3",
                            "display": "Platelets [#/volume] in Blood by Automated count"
                        }
                    ],
                    "text": "Platelets [#/volume] in Blood by Automated count"
                },
                "valueQuantity": {
                    "value": 220,
                    "units": "K/uL",
                    "code": "K/uL",
                    "system": "http://unitsofmeasure.org"
                },
                "issued": "2013-02-22",
                "status": "final",
                "reliability": "ok",
                "extension": [
                    {
                        "url": "http://amida.com/fhir/Profile/extensions#observation-type",
                        "valueCoding": {
                            "code": "11502-2",
                            "display": "Laboratory report",
                            "system": "http://loinc.org"
                        }
                    }
                ],
                "referenceRange": [
                    {
                        "meaning": {
                            "coding": [
                                {
                                    "system": "http://hl7.org/fhir/referencerange-meaning",
                                    "code": "normal",
                                    "display": "Normal Range"
                                }
                            ],
                            "text": "Normal Range"
                        },
                        "text": "150-450 K/uL"
                    }
                ]
            }
        },
        {
            "id": "Observation/cf597428-b964-47d1-be9a-de04f4d8f3f1",
            "content": {
                "resourceType": "Observation",
                "name": {
                    "coding": [
                        {
                            "system": "http://loinc.org",
                            "code": "787-2",
                            "display": "Erythrocyte mean corpuscular volume [Entitic volume] by Automated count"
                        }
                    ],
                    "text": "Erythrocyte mean corpuscular volume [Entitic volume] by Automated count"
                },
                "valueQuantity": {
                    "value": 97.5,
                    "units": "um3",
                    "code": "um3",
                    "system": "http://unitsofmeasure.org"
                },
                "issued": "2013-02-22",
                "status": "final",
                "reliability": "ok",
                "extension": [
                    {
                        "url": "http://amida.com/fhir/Profile/extensions#observation-type",
                        "valueCoding": {
                            "code": "11502-2",
                            "display": "Laboratory report",
                            "system": "http://loinc.org"
                        }
                    }
                ],
                "referenceRange": [
                    {
                        "meaning": {
                            "coding": [
                                {
                                    "system": "http://hl7.org/fhir/referencerange-meaning",
                                    "code": "normal",
                                    "display": "Normal Range"
                                }
                            ],
                            "text": "Normal Range"
                        },
                        "text": "80-95 um3"
                    }
                ]
            }
        },
        {
            "id": "Observation/678e8f9b-4966-40be-918c-01d4acfc503a",
            "content": {
                "resourceType": "Observation",
                "name": {
                    "coding": [
                        {
                            "system": "http://loinc.org",
                            "code": "785-6",
                            "display": "Erythrocyte mean corpuscular hemoglobin [Entitic mass] by Automated count"
                        }
                    ],
                    "text": "Erythrocyte mean corpuscular hemoglobin [Entitic mass] by Automated count"
                },
                "valueQuantity": {
                    "value": 33.7,
                    "units": "uug",
                    "code": "uug",
                    "system": "http://unitsofmeasure.org"
                },
                "issued": "2013-02-22",
                "status": "final",
                "reliability": "ok",
                "extension": [
                    {
                        "url": "http://amida.com/fhir/Profile/extensions#observation-type",
                        "valueCoding": {
                            "code": "11502-2",
                            "display": "Laboratory report",
                            "system": "http://loinc.org"
                        }
                    }
                ],
                "referenceRange": [
                    {
                        "meaning": {
                            "coding": [
                                {
                                    "system": "http://hl7.org/fhir/referencerange-meaning",
                                    "code": "normal",
                                    "display": "Normal Range"
                                }
                            ],
                            "text": "Normal Range"
                        },
                        "text": "27-32 uug"
                    }
                ]
            }
        },
        {
            "id": "Observation/fee3a4ed-267d-4ffc-a388-f828e8635c29",
            "content": {
                "resourceType": "Observation",
                "name": {
                    "coding": [
                        {
                            "system": "http://loinc.org",
                            "code": "786-4",
                            "display": "Erythrocyte mean corpuscular hemoglobin concentration [Mass/volume] by Automated count"
                        }
                    ],
                    "text": "Erythrocyte mean corpuscular hemoglobin concentration [Mass/volume] by Automated count"
                },
                "valueQuantity": {
                    "value": 34.6,
                    "units": "g/dL",
                    "code": "g/dL",
                    "system": "http://unitsofmeasure.org"
                },
                "issued": "2013-02-22",
                "status": "final",
                "reliability": "ok",
                "extension": [
                    {
                        "url": "http://amida.com/fhir/Profile/extensions#observation-type",
                        "valueCoding": {
                            "code": "11502-2",
                            "display": "Laboratory report",
                            "system": "http://loinc.org"
                        }
                    }
                ],
                "referenceRange": [
                    {
                        "meaning": {
                            "coding": [
                                {
                                    "system": "http://hl7.org/fhir/referencerange-meaning",
                                    "code": "normal",
                                    "display": "Normal Range"
                                }
                            ],
                            "text": "Normal Range"
                        },
                        "text": "32-36 g/dL"
                    }
                ]
            }
        },
        {
            "id": "Observation/94b11ba2-05c8-4d1e-9362-2827c6506b32",
            "content": {
                "resourceType": "Observation",
                "name": {
                    "coding": [
                        {
                            "system": "http://loinc.org",
                            "code": "788-0",
                            "display": "Erythrocyte distribution width [Ratio] by Automated count"
                        }
                    ],
                    "text": "Erythrocyte distribution width [Ratio] by Automated count"
                },
                "valueQuantity": {
                    "value": 13.2,
                    "units": "%",
                    "code": "%",
                    "system": "http://unitsofmeasure.org"
                },
                "issued": "2013-02-22",
                "status": "final",
                "reliability": "ok",
                "extension": [
                    {
                        "url": "http://amida.com/fhir/Profile/extensions#observation-type",
                        "valueCoding": {
                            "code": "11502-2",
                            "display": "Laboratory report",
                            "system": "http://loinc.org"
                        }
                    }
                ],
                "referenceRange": [
                    {
                        "meaning": {
                            "coding": [
                                {
                                    "system": "http://hl7.org/fhir/referencerange-meaning",
                                    "code": "normal",
                                    "display": "Normal Range"
                                }
                            ],
                            "text": "Normal Range"
                        },
                        "text": "11.5-14.5 %"
                    }
                ]
            }
        },
        {
            "id": "Observation/a0b14bf6-69b4-4e46-8f6b-9a35d19a9c54",
            "content": {
                "resourceType": "Observation",
                "name": {
                    "coding": [
                        {
                            "system": "http://loinc.org",
                            "code": "30392-5",
                            "display": "Nucleated erythrocytes [#/volume] in Blood"
                        }
                    ],
                    "text": "Nucleated erythrocytes [#/volume] in Blood"
                },
                "valueQuantity": {
                    "value": 0
                },
                "issued": "2013-02-22",
                "status": "final",
                "reliability": "ok",
                "extension": [
                    {
                        "url": "http://amida.com/fhir/Profile/extensions#observation-type",
                        "valueCoding": {
                            "code": "11502-2",
                            "display": "Laboratory report",
                            "system": "http://loinc.org"
                        }
                    }
                ],
                "referenceRange": [
                    {
                        "meaning": {
                            "coding": [
                                {
                                    "system": "http://hl7.org/fhir/referencerange-meaning",
                                    "code": "normal",
                                    "display": "Normal Range"
                                }
                            ],
                            "text": "Normal Range"
                        },
                        "text": "0.00-0.00"
                    }
                ]
            }
        },
        {
            "id": "Observation/c8d3a1ff-4b4a-491d-86d8-cdb744801f8b",
            "content": {
                "resourceType": "Observation",
                "name": {
                    "coding": [
                        {
                            "system": "http://loinc.org",
                            "code": "26461-4",
                            "display": "Nucleated erythrocytes/100 erythrocytes in Blood"
                        }
                    ],
                    "text": "Nucleated erythrocytes/100 erythrocytes in Blood"
                },
                "valueQuantity": {
                    "value": 0
                },
                "issued": "2013-02-22",
                "status": "final",
                "reliability": "ok",
                "extension": [
                    {
                        "url": "http://amida.com/fhir/Profile/extensions#observation-type",
                        "valueCoding": {
                            "code": "11502-2",
                            "display": "Laboratory report",
                            "system": "http://loinc.org"
                        }
                    }
                ],
                "referenceRange": [
                    {
                        "meaning": {
                            "coding": [
                                {
                                    "system": "http://hl7.org/fhir/referencerange-meaning",
                                    "code": "normal",
                                    "display": "Normal Range"
                                }
                            ],
                            "text": "Normal Range"
                        },
                        "text": "0.0-0.0"
                    }
                ]
            }
        },
        {
            "id": "MedicationPrescription/5eaa419f-8771-4aba-9f3c-892f1b97cedc",
            "content": {
                "resourceType": "MedicationPrescription",
                "status": "active",
                "dateWritten": "2013-03-07",
                "dosageInstruction": [
                    {
                        "timingPeriod": {
                            "start": "2013-03-07"
                        }
                    }
                ],
                "text": {
                    "status": "generated",
                    "div": "ALBUTEROL INHALER HFA 90 MCG HFA AER AD"
                },
                "contained": [
                    {
                        "id": "med",
                        "resourceType": "Medication",
                        "name": "ALBUTEROL INHALER HFA 90 MCG HFA AER AD",
                        "code": {
                            "coding": [
                                {
                                    "system": "http://www.nlm.nih.gov/research/umls/rxnorm",
                                    "code": "1360201",
                                    "display": "Albuterol 0.09 MG/ACTUAT Metered Dose Inhaler"
                                }
                            ],
                            "text": "Albuterol 0.09 MG/ACTUAT Metered Dose Inhaler"
                        }
                    }
                ],
                "medication": {
                    "reference": "#med",
                    "display": "ALBUTEROL INHALER HFA 90 MCG HFA AER AD"
                }
            }
        },
        {
            "id": "MedicationAdministration/cc17cfb1-b475-4137-9bb8-ac7a9e2b683a",
            "content": {
                "resourceType": "MedicationAdministration",
                "status": "completed",
                "practitioner": {
                    "reference": "Practitioner/unknown",
                    "display": "Unknown"
                },
                "whenGiven": {
                    "start": "2013-03-07"
                },
                "dosage": [
                    {
                        "timingPeriod": {
                            "start": "2013-03-07"
                        }
                    }
                ],
                "prescription": {
                    "reference": "MedicationPrescription/5eaa419f-8771-4aba-9f3c-892f1b97cedc",
                    "display": "ALBUTEROL INHALER HFA 90 MCG HFA AER AD"
                },
                "contained": [
                    {
                        "id": "med",
                        "resourceType": "Medication",
                        "name": "ALBUTEROL INHALER HFA 90 MCG HFA AER AD",
                        "code": {
                            "coding": [
                                {
                                    "system": "http://www.nlm.nih.gov/research/umls/rxnorm",
                                    "code": "1360201",
                                    "display": "Albuterol 0.09 MG/ACTUAT Metered Dose Inhaler"
                                }
                            ],
                            "text": "Albuterol 0.09 MG/ACTUAT Metered Dose Inhaler"
                        }
                    }
                ],
                "medication": {
                    "reference": "#med",
                    "display": "ALBUTEROL INHALER HFA 90 MCG HFA AER AD"
                }
            }
        },
        {
            "id": "MedicationPrescription/11def6b2-8a3e-4559-84df-7136c54eaeb7",
            "content": {
                "resourceType": "MedicationPrescription",
                "status": "active",
                "dateWritten": "2013-02-22",
                "dosageInstruction": [
                    {
                        "timingPeriod": {
                            "start": "2013-02-22",
                            "end": "2013-03-01"
                        }
                    }
                ],
                "text": {
                    "status": "generated",
                    "div": "CLARITHROMYCIN 500 MG TABLET"
                },
                "contained": [
                    {
                        "id": "med",
                        "resourceType": "Medication",
                        "name": "CLARITHROMYCIN 500 MG TABLET",
                        "code": {
                            "coding": [
                                {
                                    "system": "http://www.nlm.nih.gov/research/umls/rxnorm",
                                    "code": "197517",
                                    "display": "Clarithromycin 500 MG Oral Tablet"
                                }
                            ],
                            "text": "Clarithromycin 500 MG Oral Tablet"
                        }
                    }
                ],
                "medication": {
                    "reference": "#med",
                    "display": "CLARITHROMYCIN 500 MG TABLET"
                }
            }
        },
        {
            "id": "MedicationAdministration/698e7825-b1c2-4dac-baf2-c1a8e8d3ab75",
            "content": {
                "resourceType": "MedicationAdministration",
                "status": "completed",
                "practitioner": {
                    "reference": "Practitioner/unknown",
                    "display": "Unknown"
                },
                "whenGiven": {
                    "start": "2013-02-22",
                    "end": "2013-03-01"
                },
                "dosage": [
                    {
                        "timingPeriod": {
                            "start": "2013-02-22",
                            "end": "2013-03-01"
                        }
                    }
                ],
                "prescription": {
                    "reference": "MedicationPrescription/11def6b2-8a3e-4559-84df-7136c54eaeb7",
                    "display": "CLARITHROMYCIN 500 MG TABLET"
                },
                "contained": [
                    {
                        "id": "med",
                        "resourceType": "Medication",
                        "name": "CLARITHROMYCIN 500 MG TABLET",
                        "code": {
                            "coding": [
                                {
                                    "system": "http://www.nlm.nih.gov/research/umls/rxnorm",
                                    "code": "197517",
                                    "display": "Clarithromycin 500 MG Oral Tablet"
                                }
                            ],
                            "text": "Clarithromycin 500 MG Oral Tablet"
                        }
                    }
                ],
                "medication": {
                    "reference": "#med",
                    "display": "CLARITHROMYCIN 500 MG TABLET"
                }
            }
        }
    ]
}