{
    "resourceType": "Bundle",
    "totalResults": 43,
    "entry": [
        {
            "id": "Patient/some-id-here-1987",
            "content": {
                "resourceType": "Patient",
                "identifier": [
                    {
                        "system": "http://www.midea-tecg.com",
                        "value": "JOE_DOE_IDENTIFIER"
                    }
                ],
                "name": [
                    {
                        "family": [
                            "DOE"
                        ],
                        "given": [
                            "JOE"
                        ]
                    }
                ]
            }
        },
        {
            "id": "AdverseReaction/8faf04fc-f47a-4f97-9c91-3481f22d666a",
            "content": {
                "resourceType": "AdverseReaction",
                "symptom": [
                    {
                        "code": {
                            "coding": [
                                {
                                    "system": "http://snomed.info/sct",
                                    "code": "267036007",
                                    "display": "Shortness of Breath"
                                }
                            ],
                            "text": "Shortness of Breath"
                        }
                    }
                ],
                "didNotOccurFlag": false,
                "subject": {
                    "reference": "Patient/some-id-here-1987",
                    "display": "DOE, JOE"
                }
            }
        },
        {
            "id": "AllergyIntolerance/482c27dc-fc73-4987-96eb-4b2dcd4b4534",
            "content": {
                "resourceType": "AllergyIntolerance",
                "sensitivityType": "allergy",
                "recordedDate": "2013-02-22",
                "status": "confirmed",
                "substance": {
                    "reference": "Substance/c5692ec9-ea5b-4d11-8a6a-5d887306ddb3",
                    "display": "Codeine"
                },
                "reaction": [
                    {
                        "reference": "AdverseReaction/8faf04fc-f47a-4f97-9c91-3481f22d666a",
                        "display": "Shortness of Breath"
                    }
                ],
                "subject": {
                    "reference": "Patient/some-id-here-1987",
                    "display": "DOE, JOE"
                }
            }
        },
        {
            "id": "AdverseReaction/754cd0a5-e9d1-40fe-8c37-33affb74bd42",
            "content": {
                "resourceType": "AdverseReaction",
                "symptom": [
                    {
                        "code": {
                            "coding": [
                                {
                                    "system": "http://snomed.info/sct",
                                    "code": "247472004",
                                    "display": "Hives"
                                }
                            ],
                            "text": "Hives"
                        }
                    }
                ],
                "didNotOccurFlag": false,
                "subject": {
                    "reference": "Patient/some-id-here-1987",
                    "display": "DOE, JOE"
                }
            }
        },
        {
            "id": "AllergyIntolerance/66a28116-1589-4697-9fc1-a3ecf18ef6cb",
            "content": {
                "resourceType": "AllergyIntolerance",
                "sensitivityType": "allergy",
                "recordedDate": "2013-02-22",
                "status": "confirmed",
                "substance": {
                    "reference": "Substance/44110089-bc20-4777-9976-8b9caca92785",
                    "display": "Aspirin"
                },
                "reaction": [
                    {
                        "reference": "AdverseReaction/754cd0a5-e9d1-40fe-8c37-33affb74bd42",
                        "display": "Hives"
                    }
                ],
                "subject": {
                    "reference": "Patient/some-id-here-1987",
                    "display": "DOE, JOE"
                }
            }
        },
        {
            "id": "Observation/ba3796b8-1573-4110-9b8f-4e4f58a1001a",
            "content": {
                "resourceType": "Observation",
                "name": {
                    "coding": [
                        {
                            "system": "http://loinc.org",
                            "code": "8480-6",
                            "display": "Systolic blood pressure"
                        }
                    ],
                    "text": "Systolic blood pressure"
                },
                "valueQuantity": {
                    "value": 135,
                    "units": "mm[Hg]",
                    "code": "mm[Hg]",
                    "system": "http://unitsofmeasure.org"
                },
                "issued": "2013-03-07",
                "status": "final",
                "reliability": "ok",
                "extension": [
                    {
                        "url": "http://amida.com/fhir/Profile/extensions#observation-type",
                        "valueCoding": {
                            "code": "8716-3",
                            "display": "Vital signs",
                            "system": "http://loinc.org"
                        }
                    }
                ],
                "subject": {
                    "reference": "Patient/some-id-here-1987",
                    "display": "DOE, JOE"
                }
            }
        },
        {
            "id": "Observation/2b60b304-5f25-4c5c-915e-a4196878ed64",
            "content": {
                "resourceType": "Observation",
                "name": {
                    "coding": [
                        {
                            "system": "http://loinc.org",
                            "code": "8462-4",
                            "display": "Diastolic blood pressure"
                        }
                    ],
                    "text": "Diastolic blood pressure"
                },
                "valueQuantity": {
                    "value": 93,
                    "units": "mm[Hg]",
                    "code": "mm[Hg]",
                    "system": "http://unitsofmeasure.org"
                },
                "issued": "2013-03-07",
                "status": "final",
                "reliability": "ok",
                "extension": [
                    {
                        "url": "http://amida.com/fhir/Profile/extensions#observation-type",
                        "valueCoding": {
                            "code": "8716-3",
                            "display": "Vital signs",
                            "system": "http://loinc.org"
                        }
                    }
                ],
                "subject": {
                    "reference": "Patient/some-id-here-1987",
                    "display": "DOE, JOE"
                }
            }
        },
        {
            "id": "Observation/dd1bf23c-e8cf-4e64-9f15-dcd8be9def6d",
            "content": {
                "resourceType": "Observation",
                "name": {
                    "coding": [
                        {
                            "system": "http://loinc.org",
                            "code": "8302-2",
                            "display": "Body height"
                        }
                    ],
                    "text": "Body height"
                },
                "valueQuantity": {
                    "value": 177,
                    "units": "cm",
                    "code": "cm",
                    "system": "http://unitsofmeasure.org"
                },
                "issued": "2013-03-07",
                "status": "final",
                "reliability": "ok",
                "extension": [
                    {
                        "url": "http://amida.com/fhir/Profile/extensions#observation-type",
                        "valueCoding": {
                            "code": "8716-3",
                            "display": "Vital signs",
                            "system": "http://loinc.org"
                        }
                    }
                ],
                "subject": {
                    "reference": "Patient/some-id-here-1987",
                    "display": "DOE, JOE"
                }
            }
        },
        {
            "id": "Observation/29bee2e6-6ae5-423b-a4ff-08c8ad5b290c",
            "content": {
                "resourceType": "Observation",
                "name": {
                    "coding": [
                        {
                            "system": "http://loinc.org",
                            "code": "29463-7",
                            "display": "Body weight"
                        }
                    ],
                    "text": "Body weight"
                },
                "valueQuantity": {
                    "value": 89,
                    "units": "kg",
                    "code": "kg",
                    "system": "http://unitsofmeasure.org"
                },
                "issued": "2013-03-07",
                "status": "final",
                "reliability": "ok",
                "extension": [
                    {
                        "url": "http://amida.com/fhir/Profile/extensions#observation-type",
                        "valueCoding": {
                            "code": "8716-3",
                            "display": "Vital signs",
                            "system": "http://loinc.org"
                        }
                    }
                ],
                "subject": {
                    "reference": "Patient/some-id-here-1987",
                    "display": "DOE, JOE"
                }
            }
        },
        {
            "id": "Observation/a0d3cdd3-b8af-4869-9849-0706d2506cb6",
            "content": {
                "resourceType": "Observation",
                "name": {
                    "coding": [
                        {
                            "system": "http://loinc.org",
                            "code": "39156-5",
                            "display": "BMI"
                        }
                    ],
                    "text": "BMI"
                },
                "valueQuantity": {
                    "value": 28.4,
                    "units": "kg/m2",
                    "code": "kg/m2",
                    "system": "http://unitsofmeasure.org"
                },
                "issued": "2013-03-07",
                "status": "final",
                "reliability": "ok",
                "extension": [
                    {
                        "url": "http://amida.com/fhir/Profile/extensions#observation-type",
                        "valueCoding": {
                            "code": "8716-3",
                            "display": "Vital signs",
                            "system": "http://loinc.org"
                        }
                    }
                ],
                "subject": {
                    "reference": "Patient/some-id-here-1987",
                    "display": "DOE, JOE"
                }
            }
        },
        {
            "id": "Observation/a97ec04e-8ec4-4273-a64d-7991e8d555ad",
            "content": {
                "resourceType": "Observation",
                "name": {
                    "coding": [
                        {
                            "system": "http://loinc.org",
                            "code": "8480-6",
                            "display": "Systolic blood pressure"
                        }
                    ],
                    "text": "Systolic blood pressure"
                },
                "valueQuantity": {
                    "value": 135,
                    "units": "mm[Hg]",
                    "code": "mm[Hg]",
                    "system": "http://unitsofmeasure.org"
                },
                "issued": "2013-02-22",
                "status": "final",
                "reliability": "ok",
                "extension": [
                    {
                        "url": "http://amida.com/fhir/Profile/extensions#observation-type",
                        "valueCoding": {
                            "code": "8716-3",
                            "display": "Vital signs",
                            "system": "http://loinc.org"
                        }
                    }
                ],
                "subject": {
                    "reference": "Patient/some-id-here-1987",
                    "display": "DOE, JOE"
                }
            }
        },
        {
            "id": "Observation/255b4903-824f-461c-b037-b0817ee652c9",
            "content": {
                "resourceType": "Observation",
                "name": {
                    "coding": [
                        {
                            "system": "http://loinc.org",
                            "code": "8462-4",
                            "display": "Diastolic blood pressure"
                        }
                    ],
                    "text": "Diastolic blood pressure"
                },
                "valueQuantity": {
                    "value": 92,
                    "units": "mm[Hg]",
                    "code": "mm[Hg]",
                    "system": "http://unitsofmeasure.org"
                },
                "issued": "2013-02-22",
                "status": "final",
                "reliability": "ok",
                "extension": [
                    {
                        "url": "http://amida.com/fhir/Profile/extensions#observation-type",
                        "valueCoding": {
                            "code": "8716-3",
                            "display": "Vital signs",
                            "system": "http://loinc.org"
                        }
                    }
                ],
                "subject": {
                    "reference": "Patient/some-id-here-1987",
                    "display": "DOE, JOE"
                }
            }
        },
        {
            "id": "Observation/1cfa2cf2-6439-4976-8b2a-f3d0d7e567ce",
            "content": {
                "resourceType": "Observation",
                "name": {
                    "coding": [
                        {
                            "system": "http://loinc.org",
                            "code": "8302-2",
                            "display": "Body height"
                        }
                    ],
                    "text": "Body height"
                },
                "valueQuantity": {
                    "value": 177,
                    "units": "cm",
                    "code": "cm",
                    "system": "http://unitsofmeasure.org"
                },
                "issued": "2013-02-22",
                "status": "final",
                "reliability": "ok",
                "extension": [
                    {
                        "url": "http://amida.com/fhir/Profile/extensions#observation-type",
                        "valueCoding": {
                            "code": "8716-3",
                            "display": "Vital signs",
                            "system": "http://loinc.org"
                        }
                    }
                ],
                "subject": {
                    "reference": "Patient/some-id-here-1987",
                    "display": "DOE, JOE"
                }
            }
        },
        {
            "id": "Observation/e6b09b8a-957d-4f2c-a6b5-b15e62ca12e8",
            "content": {
                "resourceType": "Observation",
                "name": {
                    "coding": [
                        {
                            "system": "http://loinc.org",
                            "code": "29463-7",
                            "display": "Body weight"
                        }
                    ],
                    "text": "Body weight"
                },
                "valueQuantity": {
                    "value": 88,
                    "units": "kg",
                    "code": "kg",
                    "system": "http://unitsofmeasure.org"
                },
                "issued": "2013-02-22",
                "status": "final",
                "reliability": "ok",
                "extension": [
                    {
                        "url": "http://amida.com/fhir/Profile/extensions#observation-type",
                        "valueCoding": {
                            "code": "8716-3",
                            "display": "Vital signs",
                            "system": "http://loinc.org"
                        }
                    }
                ],
                "subject": {
                    "reference": "Patient/some-id-here-1987",
                    "display": "DOE, JOE"
                }
            }
        },
        {
            "id": "Observation/f1f467a5-8bb7-4e39-af02-5d999cf45a0c",
            "content": {
                "resourceType": "Observation",
                "name": {
                    "coding": [
                        {
                            "system": "http://loinc.org",
                            "code": "39156-5",
                            "display": "BMI"
                        }
                    ],
                    "text": "BMI"
                },
                "valueQuantity": {
                    "value": 28.1,
                    "units": "kg/m2",
                    "code": "kg/m2",
                    "system": "http://unitsofmeasure.org"
                },
                "issued": "2013-02-22",
                "status": "final",
                "reliability": "ok",
                "extension": [
                    {
                        "url": "http://amida.com/fhir/Profile/extensions#observation-type",
                        "valueCoding": {
                            "code": "8716-3",
                            "display": "Vital signs",
                            "system": "http://loinc.org"
                        }
                    }
                ],
                "subject": {
                    "reference": "Patient/some-id-here-1987",
                    "display": "DOE, JOE"
                }
            }
        },
        {
            "id": "Observation/7efd35fe-99cf-4088-a520-dbc9c8688981",
            "content": {
                "resourceType": "Observation",
                "name": {
                    "coding": [
                        {
                            "system": "http://loinc.org",
                            "code": "35094-2",
                            "display": "Blood pressure panel"
                        }
                    ],
                    "text": "Blood pressure panel"
                },
                "issued": "2013-02-22",
                "status": "final",
                "reliability": "ok",
                "extension": [
                    {
                        "url": "http://amida.com/fhir/Profile/extensions#observation-type",
                        "valueCoding": {
                            "code": "8716-3",
                            "display": "Vital signs",
                            "system": "http://loinc.org"
                        }
                    }
                ],
                "related": [
                    {
                        "type": "has-component",
                        "target": {
                            "reference": "Observation/a97ec04e-8ec4-4273-a64d-7991e8d555ad"
                        }
                    },
                    {
                        "type": "has-component",
                        "target": {
                            "reference": "Observation/255b4903-824f-461c-b037-b0817ee652c9"
                        }
                    }
                ],
                "subject": {
                    "reference": "Patient/some-id-here-1987",
                    "display": "DOE, JOE"
                }
            }
        },
        {
            "id": "Observation/33f28ea7-b68d-42c1-b75b-42c5259488bd",
            "content": {
                "resourceType": "Observation",
                "name": {
                    "coding": [
                        {
                            "system": "http://loinc.org",
                            "code": "35094-2",
                            "display": "Blood pressure panel"
                        }
                    ],
                    "text": "Blood pressure panel"
                },
                "issued": "2013-03-07",
                "status": "final",
                "reliability": "ok",
                "extension": [
                    {
                        "url": "http://amida.com/fhir/Profile/extensions#observation-type",
                        "valueCoding": {
                            "code": "8716-3",
                            "display": "Vital signs",
                            "system": "http://loinc.org"
                        }
                    }
                ],
                "related": [
                    {
                        "type": "has-component",
                        "target": {
                            "reference": "Observation/ba3796b8-1573-4110-9b8f-4e4f58a1001a"
                        }
                    },
                    {
                        "type": "has-component",
                        "target": {
                            "reference": "Observation/2b60b304-5f25-4c5c-915e-a4196878ed64"
                        }
                    }
                ],
                "subject": {
                    "reference": "Patient/some-id-here-1987",
                    "display": "DOE, JOE"
                }
            }
        },
        {
            "id": "Observation/b735e0c1-9eea-45d7-a965-98946aace2a2",
            "content": {
                "resourceType": "Observation",
                "name": {
                    "coding": [
                        {
                            "system": "http://loinc.org",
                            "code": "55418-8",
                            "display": "Weight and Height tracking panel"
                        }
                    ],
                    "text": "Weight and Height tracking panel"
                },
                "issued": "2013-02-22",
                "status": "final",
                "reliability": "ok",
                "extension": [
                    {
                        "url": "http://amida.com/fhir/Profile/extensions#observation-type",
                        "valueCoding": {
                            "code": "8716-3",
                            "display": "Vital signs",
                            "system": "http://loinc.org"
                        }
                    }
                ],
                "related": [
                    {
                        "type": "has-component",
                        "target": {
                            "reference": "Observation/1cfa2cf2-6439-4976-8b2a-f3d0d7e567ce"
                        }
                    },
                    {
                        "type": "has-component",
                        "target": {
                            "reference": "Observation/e6b09b8a-957d-4f2c-a6b5-b15e62ca12e8"
                        }
                    },
                    {
                        "type": "has-component",
                        "target": {
                            "reference": "Observation/f1f467a5-8bb7-4e39-af02-5d999cf45a0c"
                        }
                    }
                ],
                "subject": {
                    "reference": "Patient/some-id-here-1987",
                    "display": "DOE, JOE"
                }
            }
        },
        {
            "id": "Observation/9211ea38-b5dd-4fa7-a649-6c96a65d315a",
            "content": {
                "resourceType": "Observation",
                "name": {
                    "coding": [
                        {
                            "system": "http://loinc.org",
                            "code": "55418-8",
                            "display": "Weight and Height tracking panel"
                        }
                    ],
                    "text": "Weight and Height tracking panel"
                },
                "issued": "2013-03-07",
                "status": "final",
                "reliability": "ok",
                "extension": [
                    {
                        "url": "http://amida.com/fhir/Profile/extensions#observation-type",
                        "valueCoding": {
                            "code": "8716-3",
                            "display": "Vital signs",
                            "system": "http://loinc.org"
                        }
                    }
                ],
                "related": [
                    {
                        "type": "has-component",
                        "target": {
                            "reference": "Observation/dd1bf23c-e8cf-4e64-9f15-dcd8be9def6d"
                        }
                    },
                    {
                        "type": "has-component",
                        "target": {
                            "reference": "Observation/29bee2e6-6ae5-423b-a4ff-08c8ad5b290c"
                        }
                    },
                    {
                        "type": "has-component",
                        "target": {
                            "reference": "Observation/a0d3cdd3-b8af-4869-9849-0706d2506cb6"
                        }
                    }
                ],
                "subject": {
                    "reference": "Patient/some-id-here-1987",
                    "display": "DOE, JOE"
                }
            }
        },
        {
            "id": "Condition/520859d5-9f4f-4b68-9da5-34c2b5d19170",
            "content": {
                "resourceType": "Condition",
                "status": "confirmed",
                "code": {
                    "coding": [
                        {
                            "system": "http://snomed.info/sct",
                            "code": "385093006",
                            "display": "Community acquired pneumonia"
                        }
                    ],
                    "text": "Community acquired pneumonia"
                },
                "subject": {
                    "reference": "Patient/some-id-here-1987",
                    "display": "DOE, JOE"
                }
            }
        },
        {
            "id": "Condition/4b9dad71-683b-4d8a-a2b6-7db303fcf0d6",
            "content": {
                "resourceType": "Condition",
                "status": "confirmed",
                "code": {
                    "coding": [
                        {
                            "system": "http://snomed.info/sct",
                            "code": "195967001",
                            "display": "Asthma"
                        }
                    ],
                    "text": "Asthma"
                },
                "subject": {
                    "reference": "Patient/some-id-here-1987",
                    "display": "DOE, JOE"
                }
            }
        },
        {
            "id": "Condition/96398442-43ac-403c-919c-51f225b48798",
            "content": {
                "resourceType": "Condition",
                "status": "confirmed",
                "code": {
                    "coding": [
                        {
                            "code": "389087006",
                            "display": "Hypoxemia"
                        }
                    ],
                    "text": "Hypoxemia"
                },
                "subject": {
                    "reference": "Patient/some-id-here-1987",
                    "display": "DOE, JOE"
                }
            }
        },
        {
            "id": "Observation/01852f03-7459-4d73-9b7b-2ece09d5e6b2",
            "content": {
                "resourceType": "Observation",
                "name": {
                    "coding": [
                        {
                            "system": "http://loinc.org",
                            "code": "6690-2",
                            "display": "Leukocytes [#/volume] in Blood by Automated count"
                        }
                    ],
                    "text": "Leukocytes [#/volume] in Blood by Automated count"
                },
                "valueQuantity": {
                    "value": 7.6,
                    "units": "K/uL",
                    "code": "K/uL",
                    "system": "http://unitsofmeasure.org"
                },
                "issued": "2013-02-22",
                "status": "final",
                "reliability": "ok",
                "extension": [
                    {
                        "url": "http://amida.com/fhir/Profile/extensions#observation-type",
                        "valueCoding": {
                            "code": "11502-2",
                            "display": "Laboratory report",
                            "system": "http://loinc.org"
                        }
                    }
                ],
                "referenceRange": [
                    {
                        "meaning": {
                            "coding": [
                                {
                                    "system": "http://hl7.org/fhir/referencerange-meaning",
                                    "code": "normal",
                                    "display": "Normal Range"
                                }
                            ],
                            "text": "Normal Range"
                        },
                        "text": "4-10 K/uL"
                    }
                ],
                "subject": {
                    "reference": "Patient/some-id-here-1987",
                    "display": "DOE, JOE"
                }
            }
        },
        {
            "id": "Observation/fc17280e-7ab0-4ac5-8617-bd248e3b9622",
            "content": {
                "resourceType": "Observation",
                "name": {
                    "coding": [
                        {
                            "system": "http://loinc.org",
                            "code": "4544-3",
                            "display": "Hematocrit [Volume Fraction] of Blood by Automated count"
                        }
                    ],
                    "text": "Hematocrit [Volume Fraction] of Blood by Automated count"
                },
                "valueQuantity": {
                    "value": 45,
                    "units": "%",
                    "code": "%",
                    "system": "http://unitsofmeasure.org"
                },
                "issued": "2013-02-22",
                "status": "final",
                "reliability": "ok",
                "extension": [
                    {
                        "url": "http://amida.com/fhir/Profile/extensions#observation-type",
                        "valueCoding": {
                            "code": "11502-2",
                            "display": "Laboratory report",
                            "system": "http://loinc.org"
                        }
                    }
                ],
                "referenceRange": [
                    {
                        "meaning": {
                            "coding": [
                                {
                                    "system": "http://hl7.org/fhir/referencerange-meaning",
                                    "code": "normal",
                                    "display": "Normal Range"
                                }
                            ],
                            "text": "Normal Range"
                        },
                        "text": "40-54 %"
                    }
                ],
                "subject": {
                    "reference": "Patient/some-id-here-1987",
                    "display": "DOE, JOE"
                }
            }
        },
        {
            "id": "Observation/90590308-3826-46bb-b227-9f7dc605dc82",
            "content": {
                "resourceType": "Observation",
                "name": {
                    "coding": [
                        {
                            "system": "http://loinc.org",
                            "code": "718-7",
                            "display": "Hemoglobin [Mass/volume] in Blood"
                        }
                    ],
                    "text": "Hemoglobin [Mass/volume] in Blood"
                },
                "valueQuantity": {
                    "value": 14.2,
                    "units": "g/dL",
                    "code": "g/dL",
                    "system": "http://unitsofmeasure.org"
                },
                "issued": "2013-02-22",
                "status": "final",
                "reliability": "ok",
                "extension": [
                    {
                        "url": "http://amida.com/fhir/Profile/extensions#observation-type",
                        "valueCoding": {
                            "code": "11502-2",
                            "display": "Laboratory report",
                            "system": "http://loinc.org"
                        }
                    }
                ],
                "referenceRange": [
                    {
                        "meaning": {
                            "coding": [
                                {
                                    "system": "http://hl7.org/fhir/referencerange-meaning",
                                    "code": "normal",
                                    "display": "Normal Range"
                                }
                            ],
                            "text": "Normal Range"
                        },
                        "text": "13.5-18.0 g/dL"
                    }
                ],
                "subject": {
                    "reference": "Patient/some-id-here-1987",
                    "display": "DOE, JOE"
                }
            }
        },
        {
            "id": "Observation/d0c93cad-5a73-4b65-8d59-86c1e70b704b",
            "content": {
                "resourceType": "Observation",
                "name": {
                    "coding": [
                        {
                            "system": "http://loinc.org",
                            "code": "789-8",
                            "display": "Erythrocytes [#/volume] in Blood by Automated count"
                        }
                    ],
                    "text": "Erythrocytes [#/volume] in Blood by Automated count"
                },
                "valueQuantity": {
                    "value": 3.65,
                    "units": "M/uL",
                    "code": "M/uL",
                    "system": "http://unitsofmeasure.org"
                },
                "issued": "2013-02-22",
                "status": "final",
                "reliability": "ok",
                "extension": [
                    {
                        "url": "http://amida.com/fhir/Profile/extensions#observation-type",
                        "valueCoding": {
                            "code": "11502-2",
                            "display": "Laboratory report",
                            "system": "http://loinc.org"
                        }
                    }
                ],
                "referenceRange": [
                    {
                        "meaning": {
                            "coding": [
                                {
                                    "system": "http://hl7.org/fhir/referencerange-meaning",
                                    "code": "normal",
                                    "display": "Normal Range"
                                }
                            ],
                            "text": "Normal Range"
                        },
                        "text": "4.5-6.4 M/uL"
                    }
                ],
                "subject": {
                    "reference": "Patient/some-id-here-1987",
                    "display": "DOE, JOE"
                }
            }
        },
        {
            "id": "Observation/b5107339-9403-49a8-afad-d424da0086e3",
            "content": {
                "resourceType": "Observation",
                "name": {
                    "coding": [
                        {
                            "system": "http://loinc.org",
                            "code": "777-3",
                            "display": "Platelets [#/volume] in Blood by Automated count"
                        }
                    ],
                    "text": "Platelets [#/volume] in Blood by Automated count"
                },
                "valueQuantity": {
                    "value": 220,
                    "units": "K/uL",
                    "code": "K/uL",
                    "system": "http://unitsofmeasure.org"
                },
                "issued": "2013-02-22",
                "status": "final",
                "reliability": "ok",
                "extension": [
                    {
                        "url": "http://amida.com/fhir/Profile/extensions#observation-type",
                        "valueCoding": {
                            "code": "11502-2",
                            "display": "Laboratory report",
                            "system": "http://loinc.org"
                        }
                    }
                ],
                "referenceRange": [
                    {
                        "meaning": {
                            "coding": [
                                {
                                    "system": "http://hl7.org/fhir/referencerange-meaning",
                                    "code": "normal",
                                    "display": "Normal Range"
                                }
                            ],
                            "text": "Normal Range"
                        },
                        "text": "150-450 K/uL"
                    }
                ],
                "subject": {
                    "reference": "Patient/some-id-here-1987",
                    "display": "DOE, JOE"
                }
            }
        },
        {
            "id": "Observation/df6108a6-f757-4882-b903-642980c8c671",
            "content": {
                "resourceType": "Observation",
                "name": {
                    "coding": [
                        {
                            "system": "http://loinc.org",
                            "code": "787-2",
                            "display": "Erythrocyte mean corpuscular volume [Entitic volume] by Automated count"
                        }
                    ],
                    "text": "Erythrocyte mean corpuscular volume [Entitic volume] by Automated count"
                },
                "valueQuantity": {
                    "value": 97.5,
                    "units": "um3",
                    "code": "um3",
                    "system": "http://unitsofmeasure.org"
                },
                "issued": "2013-02-22",
                "status": "final",
                "reliability": "ok",
                "extension": [
                    {
                        "url": "http://amida.com/fhir/Profile/extensions#observation-type",
                        "valueCoding": {
                            "code": "11502-2",
                            "display": "Laboratory report",
                            "system": "http://loinc.org"
                        }
                    }
                ],
                "referenceRange": [
                    {
                        "meaning": {
                            "coding": [
                                {
                                    "system": "http://hl7.org/fhir/referencerange-meaning",
                                    "code": "normal",
                                    "display": "Normal Range"
                                }
                            ],
                            "text": "Normal Range"
                        },
                        "text": "80-95 um3"
                    }
                ],
                "subject": {
                    "reference": "Patient/some-id-here-1987",
                    "display": "DOE, JOE"
                }
            }
        },
        {
            "id": "Observation/b827597b-9576-48c7-b991-bee0e0fb8469",
            "content": {
                "resourceType": "Observation",
                "name": {
                    "coding": [
                        {
                            "system": "http://loinc.org",
                            "code": "785-6",
                            "display": "Erythrocyte mean corpuscular hemoglobin [Entitic mass] by Automated count"
                        }
                    ],
                    "text": "Erythrocyte mean corpuscular hemoglobin [Entitic mass] by Automated count"
                },
                "valueQuantity": {
                    "value": 33.7,
                    "units": "uug",
                    "code": "uug",
                    "system": "http://unitsofmeasure.org"
                },
                "issued": "2013-02-22",
                "status": "final",
                "reliability": "ok",
                "extension": [
                    {
                        "url": "http://amida.com/fhir/Profile/extensions#observation-type",
                        "valueCoding": {
                            "code": "11502-2",
                            "display": "Laboratory report",
                            "system": "http://loinc.org"
                        }
                    }
                ],
                "referenceRange": [
                    {
                        "meaning": {
                            "coding": [
                                {
                                    "system": "http://hl7.org/fhir/referencerange-meaning",
                                    "code": "normal",
                                    "display": "Normal Range"
                                }
                            ],
                            "text": "Normal Range"
                        },
                        "text": "27-32 uug"
                    }
                ],
                "subject": {
                    "reference": "Patient/some-id-here-1987",
                    "display": "DOE, JOE"
                }
            }
        },
        {
            "id": "Observation/d14ce129-e464-4c71-990c-29fcea4d64bb",
            "content": {
                "resourceType": "Observation",
                "name": {
                    "coding": [
                        {
                            "system": "http://loinc.org",
                            "code": "786-4",
                            "display": "Erythrocyte mean corpuscular hemoglobin concentration [Mass/volume] by Automated count"
                        }
                    ],
                    "text": "Erythrocyte mean corpuscular hemoglobin concentration [Mass/volume] by Automated count"
                },
                "valueQuantity": {
                    "value": 34.6,
                    "units": "g/dL",
                    "code": "g/dL",
                    "system": "http://unitsofmeasure.org"
                },
                "issued": "2013-02-22",
                "status": "final",
                "reliability": "ok",
                "extension": [
                    {
                        "url": "http://amida.com/fhir/Profile/extensions#observation-type",
                        "valueCoding": {
                            "code": "11502-2",
                            "display": "Laboratory report",
                            "system": "http://loinc.org"
                        }
                    }
                ],
                "referenceRange": [
                    {
                        "meaning": {
                            "coding": [
                                {
                                    "system": "http://hl7.org/fhir/referencerange-meaning",
                                    "code": "normal",
                                    "display": "Normal Range"
                                }
                            ],
                            "text": "Normal Range"
                        },
                        "text": "32-36 g/dL"
                    }
                ],
                "subject": {
                    "reference": "Patient/some-id-here-1987",
                    "display": "DOE, JOE"
                }
            }
        },
        {
            "id": "Observation/de1bbc4a-a695-4f03-9d3d-cdc81b2d3e7f",
            "content": {
                "resourceType": "Observation",
                "name": {
                    "coding": [
                        {
                            "system": "http://loinc.org",
                            "code": "788-0",
                            "display": "Erythrocyte distribution width [Ratio] by Automated count"
                        }
                    ],
                    "text": "Erythrocyte distribution width [Ratio] by Automated count"
                },
                "valueQuantity": {
                    "value": 13.2,
                    "units": "%",
                    "code": "%",
                    "system": "http://unitsofmeasure.org"
                },
                "issued": "2013-02-22",
                "status": "final",
                "reliability": "ok",
                "extension": [
                    {
                        "url": "http://amida.com/fhir/Profile/extensions#observation-type",
                        "valueCoding": {
                            "code": "11502-2",
                            "display": "Laboratory report",
                            "system": "http://loinc.org"
                        }
                    }
                ],
                "referenceRange": [
                    {
                        "meaning": {
                            "coding": [
                                {
                                    "system": "http://hl7.org/fhir/referencerange-meaning",
                                    "code": "normal",
                                    "display": "Normal Range"
                                }
                            ],
                            "text": "Normal Range"
                        },
                        "text": "11.5-14.5 %"
                    }
                ],
                "subject": {
                    "reference": "Patient/some-id-here-1987",
                    "display": "DOE, JOE"
                }
            }
        },
        {
            "id": "Observation/35452460-c4e2-4e69-9485-06132a27234a",
            "content": {
                "resourceType": "Observation",
                "name": {
                    "coding": [
                        {
                            "system": "http://loinc.org",
                            "code": "30392-5",
                            "display": "Nucleated erythrocytes [#/volume] in Blood"
                        }
                    ],
                    "text": "Nucleated erythrocytes [#/volume] in Blood"
                },
                "valueQuantity": {
                    "value": 0
                },
                "issued": "2013-02-22",
                "status": "final",
                "reliability": "ok",
                "extension": [
                    {
                        "url": "http://amida.com/fhir/Profile/extensions#observation-type",
                        "valueCoding": {
                            "code": "11502-2",
                            "display": "Laboratory report",
                            "system": "http://loinc.org"
                        }
                    }
                ],
                "referenceRange": [
                    {
                        "meaning": {
                            "coding": [
                                {
                                    "system": "http://hl7.org/fhir/referencerange-meaning",
                                    "code": "normal",
                                    "display": "Normal Range"
                                }
                            ],
                            "text": "Normal Range"
                        },
                        "text": "0.00-0.00"
                    }
                ],
                "subject": {
                    "reference": "Patient/some-id-here-1987",
                    "display": "DOE, JOE"
                }
            }
        },
        {
            "id": "Observation/ef8f1d03-5cac-4c0c-939e-2f97ab9108e7",
            "content": {
                "resourceType": "Observation",
                "name": {
                    "coding": [
                        {
                            "system": "http://loinc.org",
                            "code": "26461-4",
                            "display": "Nucleated erythrocytes/100 erythrocytes in Blood"
                        }
                    ],
                    "text": "Nucleated erythrocytes/100 erythrocytes in Blood"
                },
                "valueQuantity": {
                    "value": 0
                },
                "issued": "2013-02-22",
                "status": "final",
                "reliability": "ok",
                "extension": [
                    {
                        "url": "http://amida.com/fhir/Profile/extensions#observation-type",
                        "valueCoding": {
                            "code": "11502-2",
                            "display": "Laboratory report",
                            "system": "http://loinc.org"
                        }
                    }
                ],
                "referenceRange": [
                    {
                        "meaning": {
                            "coding": [
                                {
                                    "system": "http://hl7.org/fhir/referencerange-meaning",
                                    "code": "normal",
                                    "display": "Normal Range"
                                }
                            ],
                            "text": "Normal Range"
                        },
                        "text": "0.0-0.0"
                    }
                ],
                "subject": {
                    "reference": "Patient/some-id-here-1987",
                    "display": "DOE, JOE"
                }
            }
        },
        {
            "id": "MedicationPrescription/cb570a7c-6095-4643-a6b5-baff7febd098",
            "content": {
                "resourceType": "MedicationPrescription",
                "status": "active",
                "dateWritten": "2013-03-07",
                "dosageInstruction": [
                    {
                        "timingPeriod": {
                            "start": "2013-03-07"
                        }
                    }
                ],
                "text": {
                    "status": "generated",
                    "div": "ALBUTEROL INHALER HFA 90 MCG HFA AER AD"
                },
                "medication": {
                    "reference": "Medication/b13e3397-3502-4ede-b4bf-fbb4e1995871",
                    "display": "Albuterol 0.09 MG/ACTUAT Metered Dose Inhaler"
                },
                "patient": {
                    "reference": "Patient/some-id-here-1987",
                    "display": "DOE, JOE"
                }
            }
        },
        {
            "id": "MedicationAdministration/c1fb423d-225a-464e-b6e5-ca45be246d4d",
            "content": {
                "resourceType": "MedicationAdministration",
                "status": "completed",
                "practitioner": {
                    "reference": "Practitioner/unknown",
                    "display": "Unknown"
                },
                "whenGiven": {
                    "start": "2013-03-07"
                },
                "dosage": [
                    {
                        "timingPeriod": {
                            "start": "2013-03-07"
                        }
                    }
                ],
                "prescription": {
                    "reference": "MedicationPrescription/cb570a7c-6095-4643-a6b5-baff7febd098",
                    "display": "ALBUTEROL INHALER HFA 90 MCG HFA AER AD"
                },
                "medication": {
                    "reference": "Medication/2559cf4c-c6ae-4bf7-9925-8d0058de0c78",
                    "display": "Albuterol 0.09 MG/ACTUAT Metered Dose Inhaler"
                },
                "patient": {
                    "reference": "Patient/some-id-here-1987",
                    "display": "DOE, JOE"
                }
            }
        },
        {
            "id": "MedicationPrescription/62aebe76-7c60-4bea-bb75-f64486970651",
            "content": {
                "resourceType": "MedicationPrescription",
                "status": "active",
                "dateWritten": "2013-02-22",
                "dosageInstruction": [
                    {
                        "timingPeriod": {
                            "start": "2013-02-22",
                            "end": "2013-03-01"
                        }
                    }
                ],
                "text": {
                    "status": "generated",
                    "div": "CLARITHROMYCIN 500 MG TABLET"
                },
                "medication": {
                    "reference": "Medication/682b3dc6-c61e-4cc8-b2d7-623b78cd9145",
                    "display": "Clarithromycin 500 MG Oral Tablet"
                },
                "patient": {
                    "reference": "Patient/some-id-here-1987",
                    "display": "DOE, JOE"
                }
            }
        },
        {
            "id": "MedicationAdministration/d618131f-89fb-4103-82b5-833d1cfc9027",
            "content": {
                "resourceType": "MedicationAdministration",
                "status": "completed",
                "practitioner": {
                    "reference": "Practitioner/unknown",
                    "display": "Unknown"
                },
                "whenGiven": {
                    "start": "2013-02-22",
                    "end": "2013-03-01"
                },
                "dosage": [
                    {
                        "timingPeriod": {
                            "start": "2013-02-22",
                            "end": "2013-03-01"
                        }
                    }
                ],
                "prescription": {
                    "reference": "MedicationPrescription/62aebe76-7c60-4bea-bb75-f64486970651",
                    "display": "CLARITHROMYCIN 500 MG TABLET"
                },
                "medication": {
                    "reference": "Medication/b0373387-e382-45f8-9f62-a125f208bd22",
                    "display": "Clarithromycin 500 MG Oral Tablet"
                },
                "patient": {
                    "reference": "Patient/some-id-here-1987",
                    "display": "DOE, JOE"
                }
            }
        },
        {
            "id": "Substance/c5692ec9-ea5b-4d11-8a6a-5d887306ddb3",
            "content": {
                "resourceType": "Substance",
                "type": {
                    "coding": [
                        {
                            "system": "http://www.nlm.nih.gov/research/umls/rxnorm",
                            "code": "2670",
                            "display": "Codeine"
                        }
                    ],
                    "text": "Codeine"
                }
            }
        },
        {
            "id": "Substance/44110089-bc20-4777-9976-8b9caca92785",
            "content": {
                "resourceType": "Substance",
                "type": {
                    "coding": [
                        {
                            "system": "http://www.nlm.nih.gov/research/umls/rxnorm",
                            "code": "1191",
                            "display": "Aspirin"
                        }
                    ],
                    "text": "Aspirin"
                }
            }
        },
        {
            "id": "Medication/b13e3397-3502-4ede-b4bf-fbb4e1995871",
            "content": {
                "resourceType": "Medication",
                "name": "Albuterol 0.09 MG/ACTUAT Metered Dose Inhaler",
                "code": {
                    "coding": [
                        {
                            "system": "http://www.nlm.nih.gov/research/umls/rxnorm",
                            "code": "1360201",
                            "display": "Albuterol 0.09 MG/ACTUAT Metered Dose Inhaler"
                        }
                    ],
                    "text": "Albuterol 0.09 MG/ACTUAT Metered Dose Inhaler"
                }
            }
        },
        {
            "id": "Medication/2559cf4c-c6ae-4bf7-9925-8d0058de0c78",
            "content": {
                "resourceType": "Medication",
                "name": "Albuterol 0.09 MG/ACTUAT Metered Dose Inhaler",
                "code": {
                    "coding": [
                        {
                            "system": "http://www.nlm.nih.gov/research/umls/rxnorm",
                            "code": "1360201",
                            "display": "Albuterol 0.09 MG/ACTUAT Metered Dose Inhaler"
                        }
                    ],
                    "text": "Albuterol 0.09 MG/ACTUAT Metered Dose Inhaler"
                }
            }
        },
        {
            "id": "Medication/682b3dc6-c61e-4cc8-b2d7-623b78cd9145",
            "content": {
                "resourceType": "Medication",
                "name": "Clarithromycin 500 MG Oral Tablet",
                "code": {
                    "coding": [
                        {
                            "system": "http://www.nlm.nih.gov/research/umls/rxnorm",
                            "code": "197517",
                            "display": "Clarithromycin 500 MG Oral Tablet"
                        }
                    ],
                    "text": "Clarithromycin 500 MG Oral Tablet"
                }
            }
        },
        {
            "id": "Medication/b0373387-e382-45f8-9f62-a125f208bd22",
            "content": {
                "resourceType": "Medication",
                "name": "Clarithromycin 500 MG Oral Tablet",
                "code": {
                    "coding": [
                        {
                            "system": "http://www.nlm.nih.gov/research/umls/rxnorm",
                            "code": "197517",
                            "display": "Clarithromycin 500 MG Oral Tablet"
                        }
                    ],
                    "text": "Clarithromycin 500 MG Oral Tablet"
                }
            }
        }
    ]
}