{
    "resourceType": "Bundle",
    "totalResults": 32,
    "entry": [
        {
            "id": "AllergyIntolerance/5dffea00-b269-4726-9ac1-57223ea64c52",
            "content": {
                "resourceType": "AllergyIntolerance",
                "criticality": "high",
                "sensitivityType": "allergy",
                "recordedDate": "2010-04-16",
                "status": "confirmed",
                "contained": [
                    {
                        "id": "allergen",
                        "resourceType": "Substance",
                        "type": {
                            "coding": [
                                {
                                    "system": "http://fdasis.nlm.nih.gov",
                                    "code": "291P45F896",
                                    "display": "Eggs"
                                }
                            ],
                            "text": "Eggs"
                        }
                    }
                ],
                "substance": {
                    "reference": "#allergen",
                    "display": "Eggs"
                }
            }
        },
        {
            "id": "AllergyIntolerance/7a74ee0f-28bf-4a5c-91b1-8a46d9ad43b6",
            "content": {
                "resourceType": "AllergyIntolerance",
                "criticality": "fatal",
                "sensitivityType": "allergy",
                "recordedDate": "2010-04-16",
                "status": "confirmed",
                "contained": [
                    {
                        "id": "allergen",
                        "resourceType": "Substance",
                        "type": {
                            "coding": [
                                {
                                    "system": "http://www.nlm.nih.gov/research/umls/rxnorm",
                                    "code": "892677",
                                    "display": "Baker's yeast allergenic extract 100 MG/ML Injectable Solution"
                                }
                            ],
                            "text": "Baker's yeast allergenic extract 100 MG/ML Injectable Solution"
                        }
                    }
                ],
                "substance": {
                    "reference": "#allergen",
                    "display": "Baker's yeast allergenic extract 100 MG/ML Injectable Solution"
                }
            }
        },
        {
            "id": "AllergyIntolerance/fb371ff2-2959-4e12-a5c1-303ed378368c",
            "content": {
                "resourceType": "AllergyIntolerance",
                "criticality": "medium",
                "sensitivityType": "allergy",
                "recordedDate": "2010-04-16",
                "status": "confirmed",
                "contained": [
                    {
                        "id": "allergen",
                        "resourceType": "Substance",
                        "type": {
                            "coding": [
                                {
                                    "code": "N0000006691",
                                    "display": "Codeine"
                                }
                            ],
                            "text": "Codeine"
                        }
                    }
                ],
                "substance": {
                    "reference": "#allergen",
                    "display": "Codeine"
                }
            }
        },
        {
            "id": "Observation/a0b0285d-3d3b-42f0-8d9b-e5b574060f38",
            "content": {
                "resourceType": "Observation",
                "name": {
                    "coding": [
                        {
                            "system": "http://loinc.org",
                            "code": "39156-5",
                            "display": "BMI"
                        }
                    ],
                    "text": "BMI"
                },
                "valueQuantity": {
                    "value": 36.6,
                    "units": "kg/m2",
                    "code": "kg/m2",
                    "system": "http://unitsofmeasure.org"
                },
                "issued": "2010-07-20",
                "status": "final",
                "reliability": "ok",
                "extension": [
                    {
                        "url": "http://amida.com/fhir/Profile/extensions#observation-type",
                        "valueCoding": {
                            "code": "8716-3",
                            "display": "Vital signs",
                            "system": "http://loinc.org"
                        }
                    }
                ]
            }
        },
        {
            "id": "Observation/70ff3e3d-8ee9-4417-87cf-ef3550f130ad",
            "content": {
                "resourceType": "Observation",
                "name": {
                    "coding": [
                        {
                            "system": "http://loinc.org",
                            "code": "8462-4",
                            "display": "BP Diastolic"
                        }
                    ],
                    "text": "BP Diastolic"
                },
                "valueQuantity": {
                    "value": 74,
                    "units": "mm[Hg]",
                    "code": "mm[Hg]",
                    "system": "http://unitsofmeasure.org"
                },
                "issued": "2010-07-20",
                "status": "final",
                "reliability": "ok",
                "extension": [
                    {
                        "url": "http://amida.com/fhir/Profile/extensions#observation-type",
                        "valueCoding": {
                            "code": "8716-3",
                            "display": "Vital signs",
                            "system": "http://loinc.org"
                        }
                    }
                ]
            }
        },
        {
            "id": "Observation/a1012891-eff2-4105-8c39-b471dbcaf2b6",
            "content": {
                "resourceType": "Observation",
                "name": {
                    "coding": [
                        {
                            "system": "http://loinc.org",
                            "code": "8480-6",
                            "display": "BP Systolic"
                        }
                    ],
                    "text": "BP Systolic"
                },
                "valueQuantity": {
                    "value": 124,
                    "units": "mm[Hg]",
                    "code": "mm[Hg]",
                    "system": "http://unitsofmeasure.org"
                },
                "issued": "2010-07-20",
                "status": "final",
                "reliability": "ok",
                "extension": [
                    {
                        "url": "http://amida.com/fhir/Profile/extensions#observation-type",
                        "valueCoding": {
                            "code": "8716-3",
                            "display": "Vital signs",
                            "system": "http://loinc.org"
                        }
                    }
                ]
            }
        },
        {
            "id": "Observation/6e1a550b-48cd-4041-8b25-107481ddb99b",
            "content": {
                "resourceType": "Observation",
                "name": {
                    "coding": [
                        {
                            "system": "http://loinc.org",
                            "code": "8462-4",
                            "display": "BP Diastolic"
                        }
                    ],
                    "text": "BP Diastolic"
                },
                "valueQuantity": {
                    "value": 72,
                    "units": "mm[Hg]",
                    "code": "mm[Hg]",
                    "system": "http://unitsofmeasure.org"
                },
                "issued": "2010-11-06",
                "status": "final",
                "reliability": "ok",
                "extension": [
                    {
                        "url": "http://amida.com/fhir/Profile/extensions#observation-type",
                        "valueCoding": {
                            "code": "8716-3",
                            "display": "Vital signs",
                            "system": "http://loinc.org"
                        }
                    }
                ]
            }
        },
        {
            "id": "Observation/8d8de3e9-1991-43d2-b5c7-52d6624eca02",
            "content": {
                "resourceType": "Observation",
                "name": {
                    "coding": [
                        {
                            "system": "http://loinc.org",
                            "code": "8480-6",
                            "display": "BP Systolic"
                        }
                    ],
                    "text": "BP Systolic"
                },
                "valueQuantity": {
                    "value": 122,
                    "units": "mm[Hg]",
                    "code": "mm[Hg]",
                    "system": "http://unitsofmeasure.org"
                },
                "issued": "2010-11-06",
                "status": "final",
                "reliability": "ok",
                "extension": [
                    {
                        "url": "http://amida.com/fhir/Profile/extensions#observation-type",
                        "valueCoding": {
                            "code": "8716-3",
                            "display": "Vital signs",
                            "system": "http://loinc.org"
                        }
                    }
                ]
            }
        },
        {
            "id": "Observation/8e33f402-e231-43b7-bb7a-d42d4b05ed38",
            "content": {
                "resourceType": "Observation",
                "name": {
                    "coding": [
                        {
                            "system": "http://loinc.org",
                            "code": "39156-5",
                            "display": "BMI"
                        }
                    ],
                    "text": "BMI"
                },
                "valueQuantity": {
                    "value": 35.9,
                    "units": "kg/m2",
                    "code": "kg/m2",
                    "system": "http://unitsofmeasure.org"
                },
                "issued": "2010-12-16",
                "status": "final",
                "reliability": "ok",
                "extension": [
                    {
                        "url": "http://amida.com/fhir/Profile/extensions#observation-type",
                        "valueCoding": {
                            "code": "8716-3",
                            "display": "Vital signs",
                            "system": "http://loinc.org"
                        }
                    }
                ]
            }
        },
        {
            "id": "Observation/89a75fb8-3b8a-413a-9a1c-ddf13e8d462e",
            "content": {
                "resourceType": "Observation",
                "name": {
                    "coding": [
                        {
                            "system": "http://loinc.org",
                            "code": "8462-4",
                            "display": "BP Diastolic"
                        }
                    ],
                    "text": "BP Diastolic"
                },
                "valueQuantity": {
                    "value": 74,
                    "units": "mm[Hg]",
                    "code": "mm[Hg]",
                    "system": "http://unitsofmeasure.org"
                },
                "issued": "2010-12-16",
                "status": "final",
                "reliability": "ok",
                "extension": [
                    {
                        "url": "http://amida.com/fhir/Profile/extensions#observation-type",
                        "valueCoding": {
                            "code": "8716-3",
                            "display": "Vital signs",
                            "system": "http://loinc.org"
                        }
                    }
                ]
            }
        },
        {
            "id": "Observation/ae1fb7a5-23c3-4e9d-89b7-29bcf6d843fd",
            "content": {
                "resourceType": "Observation",
                "name": {
                    "coding": [
                        {
                            "system": "http://loinc.org",
                            "code": "8480-6",
                            "display": "BP Systolic"
                        }
                    ],
                    "text": "BP Systolic"
                },
                "valueQuantity": {
                    "value": 126,
                    "units": "mm[Hg]",
                    "code": "mm[Hg]",
                    "system": "http://unitsofmeasure.org"
                },
                "issued": "2010-12-16",
                "status": "final",
                "reliability": "ok",
                "extension": [
                    {
                        "url": "http://amida.com/fhir/Profile/extensions#observation-type",
                        "valueCoding": {
                            "code": "8716-3",
                            "display": "Vital signs",
                            "system": "http://loinc.org"
                        }
                    }
                ]
            }
        },
        {
            "id": "Observation/32426f32-c688-4af3-8d5e-da40fca4e2ee",
            "content": {
                "resourceType": "Observation",
                "name": {
                    "coding": [
                        {
                            "system": "http://loinc.org",
                            "code": "55418-8",
                            "display": "Weight and Height tracking panel"
                        }
                    ],
                    "text": "Weight and Height tracking panel"
                },
                "issued": "2010-07-20",
                "status": "final",
                "reliability": "ok",
                "extension": [
                    {
                        "url": "http://amida.com/fhir/Profile/extensions#observation-type",
                        "valueCoding": {
                            "code": "8716-3",
                            "display": "Vital signs",
                            "system": "http://loinc.org"
                        }
                    }
                ],
                "related": [
                    {
                        "type": "has-component",
                        "target": {
                            "reference": "Observation/a0b0285d-3d3b-42f0-8d9b-e5b574060f38"
                        }
                    }
                ]
            }
        },
        {
            "id": "Observation/27fadd39-f4a4-442d-a108-805770f5168c",
            "content": {
                "resourceType": "Observation",
                "name": {
                    "coding": [
                        {
                            "system": "http://loinc.org",
                            "code": "55418-8",
                            "display": "Weight and Height tracking panel"
                        }
                    ],
                    "text": "Weight and Height tracking panel"
                },
                "issued": "2010-12-16",
                "status": "final",
                "reliability": "ok",
                "extension": [
                    {
                        "url": "http://amida.com/fhir/Profile/extensions#observation-type",
                        "valueCoding": {
                            "code": "8716-3",
                            "display": "Vital signs",
                            "system": "http://loinc.org"
                        }
                    }
                ],
                "related": [
                    {
                        "type": "has-component",
                        "target": {
                            "reference": "Observation/8e33f402-e231-43b7-bb7a-d42d4b05ed38"
                        }
                    }
                ]
            }
        },
        {
            "id": "Observation/eabd5edd-747d-46d8-8197-0f839356abc9",
            "content": {
                "resourceType": "Observation",
                "name": {
                    "coding": [
                        {
                            "system": "http://loinc.org",
                            "code": "35094-2",
                            "display": "Blood pressure panel"
                        }
                    ],
                    "text": "Blood pressure panel"
                },
                "issued": "2010-07-20",
                "status": "final",
                "reliability": "ok",
                "extension": [
                    {
                        "url": "http://amida.com/fhir/Profile/extensions#observation-type",
                        "valueCoding": {
                            "code": "8716-3",
                            "display": "Vital signs",
                            "system": "http://loinc.org"
                        }
                    }
                ],
                "related": [
                    {
                        "type": "has-component",
                        "target": {
                            "reference": "Observation/70ff3e3d-8ee9-4417-87cf-ef3550f130ad"
                        }
                    },
                    {
                        "type": "has-component",
                        "target": {
                            "reference": "Observation/a1012891-eff2-4105-8c39-b471dbcaf2b6"
                        }
                    }
                ]
            }
        },
        {
            "id": "Observation/9368d512-2c0a-440d-af02-ac2a12164bd7",
            "content": {
                "resourceType": "Observation",
                "name": {
                    "coding": [
                        {
                            "system": "http://loinc.org",
                            "code": "35094-2",
                            "display": "Blood pressure panel"
                        }
                    ],
                    "text": "Blood pressure panel"
                },
                "issued": "2010-11-06",
                "status": "final",
                "reliability": "ok",
                "extension": [
                    {
                        "url": "http://amida.com/fhir/Profile/extensions#observation-type",
                        "valueCoding": {
                            "code": "8716-3",
                            "display": "Vital signs",
                            "system": "http://loinc.org"
                        }
                    }
                ],
                "related": [
                    {
                        "type": "has-component",
                        "target": {
                            "reference": "Observation/6e1a550b-48cd-4041-8b25-107481ddb99b"
                        }
                    },
                    {
                        "type": "has-component",
                        "target": {
                            "reference": "Observation/8d8de3e9-1991-43d2-b5c7-52d6624eca02"
                        }
                    }
                ]
            }
        },
        {
            "id": "Observation/5a543a2c-7291-4ae5-97b7-b17ebab4aefa",
            "content": {
                "resourceType": "Observation",
                "name": {
                    "coding": [
                        {
                            "system": "http://loinc.org",
                            "code": "35094-2",
                            "display": "Blood pressure panel"
                        }
                    ],
                    "text": "Blood pressure panel"
                },
                "issued": "2010-12-16",
                "status": "final",
                "reliability": "ok",
                "extension": [
                    {
                        "url": "http://amida.com/fhir/Profile/extensions#observation-type",
                        "valueCoding": {
                            "code": "8716-3",
                            "display": "Vital signs",
                            "system": "http://loinc.org"
                        }
                    }
                ],
                "related": [
                    {
                        "type": "has-component",
                        "target": {
                            "reference": "Observation/89a75fb8-3b8a-413a-9a1c-ddf13e8d462e"
                        }
                    },
                    {
                        "type": "has-component",
                        "target": {
                            "reference": "Observation/ae1fb7a5-23c3-4e9d-89b7-29bcf6d843fd"
                        }
                    }
                ]
            }
        },
        {
            "id": "Condition/37c0d88c-7152-417b-b8a0-3d089f5b4668",
            "content": {
                "resourceType": "Condition",
                "status": "confirmed",
                "onsetDate": "2010-04-16",
                "dateAsserted": "2010-04-16",
                "code": {
                    "coding": [
                        {
                            "system": "http://snomed.info/sct",
                            "code": "195979001",
                            "display": "Asthma unspecified"
                        }
                    ],
                    "text": "Asthma unspecified"
                }
            }
        },
        {
            "id": "Condition/27a7850d-7bd8-4018-a334-61b6de1cfc7c",
            "content": {
                "resourceType": "Condition",
                "status": "confirmed",
                "onsetDate": "2010-04-16",
                "dateAsserted": "2010-04-16",
                "code": {
                    "coding": [
                        {
                            "system": "http://snomed.info/sct",
                            "code": "370202007",
                            "display": "Asthma causes daytime symptoms 1 to 2 times per month"
                        }
                    ],
                    "text": "Asthma causes daytime symptoms 1 to 2 times per month"
                }
            }
        },
        {
            "id": "Condition/e874d163-13bb-48c2-bd6c-7b4ef26ee852",
            "content": {
                "resourceType": "Condition",
                "status": "confirmed",
                "onsetDate": "2010-04-16",
                "dateAsserted": "2010-04-16",
                "code": {
                    "coding": [
                        {
                            "system": "http://snomed.info/sct",
                            "code": "370205009",
                            "display": "Asthma causes night symptoms 1 to 2 times per month"
                        }
                    ],
                    "text": "Asthma causes night symptoms 1 to 2 times per month"
                }
            }
        },
        {
            "id": "Condition/94d7c8b5-16bc-4d85-9312-76d40a3a2894",
            "content": {
                "resourceType": "Condition",
                "status": "confirmed",
                "onsetDate": "2010-04-16",
                "dateAsserted": "2010-04-16",
                "code": {
                    "coding": [
                        {
                            "system": "http://snomed.info/sct",
                            "code": "44054006",
                            "display": "Diabetes mellitus type 2"
                        }
                    ],
                    "text": "Diabetes mellitus type 2"
                }
            }
        },
        {
            "id": "Observation/06d93398-7246-4880-bab6-48f24794c0e1",
            "content": {
                "resourceType": "Observation",
                "name": {
                    "coding": [
                        {
                            "system": "http://loinc.org",
                            "code": "4548-4",
                            "display": "Hgb A1c MFr Bld"
                        }
                    ],
                    "text": "Hgb A1c MFr Bld"
                },
                "valueQuantity": {
                    "value": 6.5,
                    "units": "%",
                    "code": "%",
                    "system": "http://unitsofmeasure.org"
                },
                "issued": "2010-04-16",
                "status": "final",
                "reliability": "ok",
                "extension": [
                    {
                        "url": "http://amida.com/fhir/Profile/extensions#observation-type",
                        "valueCoding": {
                            "code": "11502-2",
                            "display": "Laboratory report",
                            "system": "http://loinc.org"
                        }
                    }
                ],
                "interpretation": {
                    "coding": [
                        {
                            "system": "http://hl7.org/fhir/v2/0078",
                            "code": "N",
                            "display": "Normal"
                        }
                    ],
                    "text": "Normal"
                },
                "referenceRange": [
                    {
                        "meaning": {
                            "coding": [
                                {
                                    "system": "http://hl7.org/fhir/referencerange-meaning",
                                    "code": "normal",
                                    "display": "Normal Range"
                                }
                            ],
                            "text": "Normal Range"
                        },
                        "text": "4-5.6%"
                    }
                ]
            }
        },
        {
            "id": "Observation/a115af68-acb1-4cf8-8ed8-92b9c319a128",
            "content": {
                "resourceType": "Observation",
                "name": {
                    "coding": [
                        {
                            "system": "http://snomed.info/sct",
                            "code": "166312007",
                            "display": "Blood Chemistry"
                        }
                    ],
                    "text": "Blood Chemistry"
                },
                "status": "final",
                "reliability": "ok",
                "related": [
                    {
                        "type": "has-component",
                        "target": {
                            "reference": "Observation/06d93398-7246-4880-bab6-48f24794c0e1"
                        }
                    }
                ],
                "extension": [
                    {
                        "url": "http://amida.com/fhir/Profile/extensions#observation-type",
                        "valueCoding": {
                            "code": "11502-2",
                            "display": "Laboratory report",
                            "system": "http://loinc.org"
                        }
                    }
                ]
            }
        },
        {
            "id": "Observation/064501de-798e-48db-9066-7a0c88851674",
            "content": {
                "resourceType": "Observation",
                "name": {
                    "coding": [
                        {
                            "system": "http://loinc.org",
                            "code": "4548-4",
                            "display": "Hgb A1c MFr Bld"
                        }
                    ],
                    "text": "Hgb A1c MFr Bld"
                },
                "valueQuantity": {
                    "value": 6.3,
                    "units": "%",
                    "code": "%",
                    "system": "http://unitsofmeasure.org"
                },
                "issued": "2010-07-20",
                "status": "final",
                "reliability": "ok",
                "extension": [
                    {
                        "url": "http://amida.com/fhir/Profile/extensions#observation-type",
                        "valueCoding": {
                            "code": "11502-2",
                            "display": "Laboratory report",
                            "system": "http://loinc.org"
                        }
                    }
                ],
                "interpretation": {
                    "coding": [
                        {
                            "system": "http://hl7.org/fhir/v2/0078",
                            "code": "N",
                            "display": "Normal"
                        }
                    ],
                    "text": "Normal"
                },
                "referenceRange": [
                    {
                        "meaning": {
                            "coding": [
                                {
                                    "system": "http://hl7.org/fhir/referencerange-meaning",
                                    "code": "normal",
                                    "display": "Normal Range"
                                }
                            ],
                            "text": "Normal Range"
                        },
                        "text": "4-5.6%"
                    }
                ]
            }
        },
        {
            "id": "Observation/f4a5fca8-5f07-49b8-ba2f-cdc84c01477c",
            "content": {
                "resourceType": "Observation",
                "name": {
                    "coding": [
                        {
                            "system": "http://snomed.info/sct",
                            "code": "166312007",
                            "display": "Blood Chemistry"
                        }
                    ],
                    "text": "Blood Chemistry"
                },
                "status": "final",
                "reliability": "ok",
                "related": [
                    {
                        "type": "has-component",
                        "target": {
                            "reference": "Observation/064501de-798e-48db-9066-7a0c88851674"
                        }
                    }
                ],
                "extension": [
                    {
                        "url": "http://amida.com/fhir/Profile/extensions#observation-type",
                        "valueCoding": {
                            "code": "11502-2",
                            "display": "Laboratory report",
                            "system": "http://loinc.org"
                        }
                    }
                ]
            }
        },
        {
            "id": "Observation/744efa65-cb11-42df-9f8c-c99240a7b58c",
            "content": {
                "resourceType": "Observation",
                "name": {
                    "coding": [
                        {
                            "system": "http://loinc.org",
                            "code": "4548-4",
                            "display": "Hgb A1c MFr Bld"
                        }
                    ],
                    "text": "Hgb A1c MFr Bld"
                },
                "valueQuantity": {
                    "value": 7.5,
                    "units": "%",
                    "code": "%",
                    "system": "http://unitsofmeasure.org"
                },
                "issued": "2010-12-16",
                "status": "final",
                "reliability": "ok",
                "extension": [
                    {
                        "url": "http://amida.com/fhir/Profile/extensions#observation-type",
                        "valueCoding": {
                            "code": "11502-2",
                            "display": "Laboratory report",
                            "system": "http://loinc.org"
                        }
                    }
                ],
                "interpretation": {
                    "coding": [
                        {
                            "system": "http://hl7.org/fhir/v2/0078",
                            "code": "N",
                            "display": "Normal"
                        }
                    ],
                    "text": "Normal"
                },
                "referenceRange": [
                    {
                        "meaning": {
                            "coding": [
                                {
                                    "system": "http://hl7.org/fhir/referencerange-meaning",
                                    "code": "normal",
                                    "display": "Normal Range"
                                }
                            ],
                            "text": "Normal Range"
                        },
                        "text": "4-5.6%"
                    }
                ]
            }
        },
        {
            "id": "Observation/b97126a0-da99-4a63-ab5e-cb06d23608f0",
            "content": {
                "resourceType": "Observation",
                "name": {
                    "coding": [
                        {
                            "system": "http://snomed.info/sct",
                            "code": "166312007",
                            "display": "Blood Chemistry"
                        }
                    ],
                    "text": "Blood Chemistry"
                },
                "status": "final",
                "reliability": "ok",
                "related": [
                    {
                        "type": "has-component",
                        "target": {
                            "reference": "Observation/744efa65-cb11-42df-9f8c-c99240a7b58c"
                        }
                    }
                ],
                "extension": [
                    {
                        "url": "http://amida.com/fhir/Profile/extensions#observation-type",
                        "valueCoding": {
                            "code": "11502-2",
                            "display": "Laboratory report",
                            "system": "http://loinc.org"
                        }
                    }
                ]
            }
        },
        {
            "id": "MedicationPrescription/23b54395-9af2-4ccb-b26b-c1d5825655c8",
            "content": {
                "resourceType": "MedicationPrescription",
                "status": "active",
                "dateWritten": "2010-04-16",
                "dosageInstruction": [
                    {
                        "timingPeriod": {
                            "start": "2010-04-16"
                        }
                    }
                ],
                "contained": [
                    {
                        "id": "med",
                        "resourceType": "Medication",
                        "name": "Insulin + 3 ML Insulin Lispro 100 UNT/ML Prefilled Syringe",
                        "code": {
                            "coding": [
                                {
                                    "system": "http://www.nlm.nih.gov/research/umls/rxnorm",
                                    "code": "847207",
                                    "display": "3 ML Insulin Lispro 100 UNT/ML Prefilled Syringe"
                                }
                            ],
                            "text": "3 ML Insulin Lispro 100 UNT/ML Prefilled Syringe"
                        }
                    }
                ],
                "medication": {
                    "reference": "#med",
                    "display": "Insulin + 3 ML Insulin Lispro 100 UNT/ML Prefilled Syringe"
                }
            }
        },
        {
            "id": "MedicationAdministration/666a8ac3-0243-4494-b17b-fe06dad389d6",
            "content": {
                "resourceType": "MedicationAdministration",
                "status": "completed",
                "practitioner": {
                    "reference": "Practitioner/unknown",
                    "display": "Unknown"
                },
                "whenGiven": {
                    "start": "2010-04-16"
                },
                "dosage": [
                    {
                        "timingPeriod": {
                            "start": "2010-04-16"
                        }
                    }
                ],
                "prescription": {
                    "reference": "MedicationPrescription/23b54395-9af2-4ccb-b26b-c1d5825655c8"
                },
                "contained": [
                    {
                        "id": "med",
                        "resourceType": "Medication",
                        "name": "Insulin + 3 ML Insulin Lispro 100 UNT/ML Prefilled Syringe",
                        "code": {
                            "coding": [
                                {
                                    "system": "http://www.nlm.nih.gov/research/umls/rxnorm",
                                    "code": "847207",
                                    "display": "3 ML Insulin Lispro 100 UNT/ML Prefilled Syringe"
                                }
                            ],
                            "text": "3 ML Insulin Lispro 100 UNT/ML Prefilled Syringe"
                        }
                    }
                ],
                "medication": {
                    "reference": "#med",
                    "display": "Insulin + 3 ML Insulin Lispro 100 UNT/ML Prefilled Syringe"
                }
            }
        },
        {
            "id": "MedicationPrescription/a4ed0d5f-2301-419c-8e09-6654d73924c5",
            "content": {
                "resourceType": "MedicationPrescription",
                "status": "active",
                "dateWritten": "2010-04-16",
                "dosageInstruction": [
                    {
                        "timingPeriod": {
                            "start": "2010-04-16"
                        }
                    }
                ],
                "contained": [
                    {
                        "id": "med",
                        "resourceType": "Medication",
                        "name": "Long acting inhaled beta 2 agonist + salmeterol 0.05 MG/ACTUAT Inhalant Powder",
                        "code": {
                            "coding": [
                                {
                                    "system": "http://www.nlm.nih.gov/research/umls/rxnorm",
                                    "code": "318142",
                                    "display": "salmeterol 0.05 MG/ACTUAT Inhalant Powder"
                                }
                            ],
                            "text": "salmeterol 0.05 MG/ACTUAT Inhalant Powder"
                        }
                    }
                ],
                "medication": {
                    "reference": "#med",
                    "display": "Long acting inhaled beta 2 agonist + salmeterol 0.05 MG/ACTUAT Inhalant Powder"
                }
            }
        },
        {
            "id": "MedicationAdministration/bab12162-5cde-4e76-97bc-7119de92cd45",
            "content": {
                "resourceType": "MedicationAdministration",
                "status": "completed",
                "practitioner": {
                    "reference": "Practitioner/unknown",
                    "display": "Unknown"
                },
                "whenGiven": {
                    "start": "2010-04-16"
                },
                "dosage": [
                    {
                        "timingPeriod": {
                            "start": "2010-04-16"
                        }
                    }
                ],
                "prescription": {
                    "reference": "MedicationPrescription/a4ed0d5f-2301-419c-8e09-6654d73924c5"
                },
                "contained": [
                    {
                        "id": "med",
                        "resourceType": "Medication",
                        "name": "Long acting inhaled beta 2 agonist + salmeterol 0.05 MG/ACTUAT Inhalant Powder",
                        "code": {
                            "coding": [
                                {
                                    "system": "http://www.nlm.nih.gov/research/umls/rxnorm",
                                    "code": "318142",
                                    "display": "salmeterol 0.05 MG/ACTUAT Inhalant Powder"
                                }
                            ],
                            "text": "salmeterol 0.05 MG/ACTUAT Inhalant Powder"
                        }
                    }
                ],
                "medication": {
                    "reference": "#med",
                    "display": "Long acting inhaled beta 2 agonist + salmeterol 0.05 MG/ACTUAT Inhalant Powder"
                }
            }
        },
        {
            "id": "MedicationPrescription/31948fe2-3285-459b-8071-b80522a41388",
            "content": {
                "resourceType": "MedicationPrescription",
                "status": "active",
                "dateWritten": "2010-04-16",
                "dosageInstruction": [
                    {
                        "timingPeriod": {
                            "start": "2010-04-16"
                        }
                    }
                ],
                "contained": [
                    {
                        "id": "med",
                        "resourceType": "Medication",
                        "name": "Short acting beta 2 agonist + Albuterol 0.83 MG/ML Inhalant Solution",
                        "code": {
                            "coding": [
                                {
                                    "system": "http://www.nlm.nih.gov/research/umls/rxnorm",
                                    "code": "630208",
                                    "display": "Albuterol 0.83 MG/ML Inhalant Solution"
                                }
                            ],
                            "text": "Albuterol 0.83 MG/ML Inhalant Solution"
                        }
                    }
                ],
                "medication": {
                    "reference": "#med",
                    "display": "Short acting beta 2 agonist + Albuterol 0.83 MG/ML Inhalant Solution"
                }
            }
        },
        {
            "id": "MedicationAdministration/94e425f3-51ca-479b-9b1f-985abfaa5643",
            "content": {
                "resourceType": "MedicationAdministration",
                "status": "completed",
                "practitioner": {
                    "reference": "Practitioner/unknown",
                    "display": "Unknown"
                },
                "whenGiven": {
                    "start": "2010-04-16"
                },
                "dosage": [
                    {
                        "timingPeriod": {
                            "start": "2010-04-16"
                        }
                    }
                ],
                "prescription": {
                    "reference": "MedicationPrescription/31948fe2-3285-459b-8071-b80522a41388"
                },
                "contained": [
                    {
                        "id": "med",
                        "resourceType": "Medication",
                        "name": "Short acting beta 2 agonist + Albuterol 0.83 MG/ML Inhalant Solution",
                        "code": {
                            "coding": [
                                {
                                    "system": "http://www.nlm.nih.gov/research/umls/rxnorm",
                                    "code": "630208",
                                    "display": "Albuterol 0.83 MG/ML Inhalant Solution"
                                }
                            ],
                            "text": "Albuterol 0.83 MG/ML Inhalant Solution"
                        }
                    }
                ],
                "medication": {
                    "reference": "#med",
                    "display": "Short acting beta 2 agonist + Albuterol 0.83 MG/ML Inhalant Solution"
                }
            }
        }
    ]
}