{
    "resourceType": "Bundle",
    "totalResults": 36,
    "entry": [
        {
            "id": "AllergyIntolerance/31205ee3-89db-414f-a8d9-7deebf015d88",
            "content": {
                "resourceType": "AllergyIntolerance",
                "criticality": "medium",
                "sensitivityType": "allergy",
                "recordedDate": "2010-04-02",
                "status": "confirmed",
                "contained": [
                    {
                        "id": "allergen",
                        "resourceType": "Substance",
                        "type": {
                            "coding": [
                                {
                                    "system": "http://fdasis.nlm.nih.gov",
                                    "code": "291P45F896",
                                    "display": "Eggs"
                                }
                            ],
                            "text": "Eggs"
                        }
                    }
                ],
                "substance": {
                    "reference": "#allergen",
                    "display": "Eggs"
                }
            }
        },
        {
            "id": "AllergyIntolerance/4dee0a63-a250-4cf7-aa30-9b1350e7aac7",
            "content": {
                "resourceType": "AllergyIntolerance",
                "criticality": "high",
                "sensitivityType": "allergy",
                "recordedDate": "2010-04-02",
                "status": "confirmed",
                "contained": [
                    {
                        "id": "allergen",
                        "resourceType": "Substance",
                        "type": {
                            "coding": [
                                {
                                    "system": "http://www.nlm.nih.gov/research/umls/rxnorm",
                                    "code": "808917",
                                    "display": "Fosfomycin 33.3 MG/ML Oral Suspension"
                                }
                            ],
                            "text": "Fosfomycin 33.3 MG/ML Oral Suspension"
                        }
                    }
                ],
                "substance": {
                    "reference": "#allergen",
                    "display": "Fosfomycin 33.3 MG/ML Oral Suspension"
                }
            }
        },
        {
            "id": "AllergyIntolerance/4d3b0328-5e29-40b6-8279-f97f271993f0",
            "content": {
                "resourceType": "AllergyIntolerance",
                "criticality": "low",
                "sensitivityType": "allergy",
                "recordedDate": "2010-04-02",
                "status": "confirmed",
                "contained": [
                    {
                        "id": "allergen",
                        "resourceType": "Substance",
                        "type": {
                            "coding": [
                                {
                                    "system": "http://www.nlm.nih.gov/research/umls/rxnorm",
                                    "code": "406524",
                                    "display": "Doxycycline 75 MG Enteric Coated Tablet"
                                }
                            ],
                            "text": "Doxycycline 75 MG Enteric Coated Tablet"
                        }
                    }
                ],
                "substance": {
                    "reference": "#allergen",
                    "display": "Doxycycline 75 MG Enteric Coated Tablet"
                }
            }
        },
        {
            "id": "Observation/12d55ffd-2e52-45ad-b568-52e7d8caebb6",
            "content": {
                "resourceType": "Observation",
                "name": {
                    "coding": [
                        {
                            "system": "http://loinc.org",
                            "code": "39156-5",
                            "display": "BMI"
                        }
                    ],
                    "text": "BMI"
                },
                "valueQuantity": {
                    "value": 35.9,
                    "units": "kg/m2",
                    "code": "kg/m2",
                    "system": "http://unitsofmeasure.org"
                },
                "issued": "2010-04-02",
                "status": "final",
                "reliability": "ok",
                "extension": [
                    {
                        "url": "http://amida.com/fhir/Profile/extensions#observation-type",
                        "valueCoding": {
                            "code": "8716-3",
                            "display": "Vital signs",
                            "system": "http://loinc.org"
                        }
                    }
                ]
            }
        },
        {
            "id": "Observation/22ec6bb1-bf7b-4b3c-b092-e9e3d8393d39",
            "content": {
                "resourceType": "Observation",
                "name": {
                    "coding": [
                        {
                            "system": "http://loinc.org",
                            "code": "8462-4",
                            "display": "BP Diastolic"
                        }
                    ],
                    "text": "BP Diastolic"
                },
                "valueQuantity": {
                    "value": 86,
                    "units": "mm[Hg]",
                    "code": "mm[Hg]",
                    "system": "http://unitsofmeasure.org"
                },
                "issued": "2010-04-02",
                "status": "final",
                "reliability": "ok",
                "extension": [
                    {
                        "url": "http://amida.com/fhir/Profile/extensions#observation-type",
                        "valueCoding": {
                            "code": "8716-3",
                            "display": "Vital signs",
                            "system": "http://loinc.org"
                        }
                    }
                ]
            }
        },
        {
            "id": "Observation/f3da3c2c-deab-41d4-812d-fcd7b6640f95",
            "content": {
                "resourceType": "Observation",
                "name": {
                    "coding": [
                        {
                            "system": "http://loinc.org",
                            "code": "8480-6",
                            "display": "BP Systolic"
                        }
                    ],
                    "text": "BP Systolic"
                },
                "valueQuantity": {
                    "value": 132,
                    "units": "mm[Hg]",
                    "code": "mm[Hg]",
                    "system": "http://unitsofmeasure.org"
                },
                "issued": "2010-04-02",
                "status": "final",
                "reliability": "ok",
                "extension": [
                    {
                        "url": "http://amida.com/fhir/Profile/extensions#observation-type",
                        "valueCoding": {
                            "code": "8716-3",
                            "display": "Vital signs",
                            "system": "http://loinc.org"
                        }
                    }
                ]
            }
        },
        {
            "id": "Observation/770c1cbe-2ed5-4060-9adf-711deb993d52",
            "content": {
                "resourceType": "Observation",
                "name": {
                    "coding": [
                        {
                            "system": "http://loinc.org",
                            "code": "8462-4",
                            "display": "BP Diastolic"
                        }
                    ],
                    "text": "BP Diastolic"
                },
                "valueQuantity": {
                    "value": 92,
                    "units": "mm[Hg]",
                    "code": "mm[Hg]",
                    "system": "http://unitsofmeasure.org"
                },
                "issued": "2010-05-20",
                "status": "final",
                "reliability": "ok",
                "extension": [
                    {
                        "url": "http://amida.com/fhir/Profile/extensions#observation-type",
                        "valueCoding": {
                            "code": "8716-3",
                            "display": "Vital signs",
                            "system": "http://loinc.org"
                        }
                    }
                ]
            }
        },
        {
            "id": "Observation/52f9c0ec-4b7e-4633-981d-61b34a7ebbba",
            "content": {
                "resourceType": "Observation",
                "name": {
                    "coding": [
                        {
                            "system": "http://loinc.org",
                            "code": "8480-6",
                            "display": "BP Systolic"
                        }
                    ],
                    "text": "BP Systolic"
                },
                "valueQuantity": {
                    "value": 142,
                    "units": "mm[Hg]",
                    "code": "mm[Hg]",
                    "system": "http://unitsofmeasure.org"
                },
                "issued": "2010-05-20",
                "status": "final",
                "reliability": "ok",
                "extension": [
                    {
                        "url": "http://amida.com/fhir/Profile/extensions#observation-type",
                        "valueCoding": {
                            "code": "8716-3",
                            "display": "Vital signs",
                            "system": "http://loinc.org"
                        }
                    }
                ]
            }
        },
        {
            "id": "Observation/467ffe5f-36da-4794-b1a7-69b8d648302b",
            "content": {
                "resourceType": "Observation",
                "name": {
                    "coding": [
                        {
                            "system": "http://loinc.org",
                            "code": "39156-5",
                            "display": "BMI"
                        }
                    ],
                    "text": "BMI"
                },
                "valueQuantity": {
                    "value": 33.7,
                    "units": "kg/m2",
                    "code": "kg/m2",
                    "system": "http://unitsofmeasure.org"
                },
                "issued": "2010-07-15",
                "status": "final",
                "reliability": "ok",
                "extension": [
                    {
                        "url": "http://amida.com/fhir/Profile/extensions#observation-type",
                        "valueCoding": {
                            "code": "8716-3",
                            "display": "Vital signs",
                            "system": "http://loinc.org"
                        }
                    }
                ]
            }
        },
        {
            "id": "Observation/f41e2093-0fe9-4951-9d58-7f8ca8632012",
            "content": {
                "resourceType": "Observation",
                "name": {
                    "coding": [
                        {
                            "system": "http://loinc.org",
                            "code": "8462-4",
                            "display": "BP Diastolic"
                        }
                    ],
                    "text": "BP Diastolic"
                },
                "valueQuantity": {
                    "value": 94,
                    "units": "mm[Hg]",
                    "code": "mm[Hg]",
                    "system": "http://unitsofmeasure.org"
                },
                "issued": "2010-07-15",
                "status": "final",
                "reliability": "ok",
                "extension": [
                    {
                        "url": "http://amida.com/fhir/Profile/extensions#observation-type",
                        "valueCoding": {
                            "code": "8716-3",
                            "display": "Vital signs",
                            "system": "http://loinc.org"
                        }
                    }
                ]
            }
        },
        {
            "id": "Observation/9ecbc730-d2ac-4ad2-8aec-04b82258a76c",
            "content": {
                "resourceType": "Observation",
                "name": {
                    "coding": [
                        {
                            "system": "http://loinc.org",
                            "code": "8480-6",
                            "display": "BP Systolic"
                        }
                    ],
                    "text": "BP Systolic"
                },
                "valueQuantity": {
                    "value": 144,
                    "units": "mm[Hg]",
                    "code": "mm[Hg]",
                    "system": "http://unitsofmeasure.org"
                },
                "issued": "2010-07-15",
                "status": "final",
                "reliability": "ok",
                "extension": [
                    {
                        "url": "http://amida.com/fhir/Profile/extensions#observation-type",
                        "valueCoding": {
                            "code": "8716-3",
                            "display": "Vital signs",
                            "system": "http://loinc.org"
                        }
                    }
                ]
            }
        },
        {
            "id": "Observation/177e5990-a573-4430-82ce-11cf0ea0f079",
            "content": {
                "resourceType": "Observation",
                "name": {
                    "coding": [
                        {
                            "system": "http://loinc.org",
                            "code": "8462-4",
                            "display": "BP Diastolic"
                        }
                    ],
                    "text": "BP Diastolic"
                },
                "valueQuantity": {
                    "value": 86,
                    "units": "mm[Hg]",
                    "code": "mm[Hg]",
                    "system": "http://unitsofmeasure.org"
                },
                "issued": "2010-09-30",
                "status": "final",
                "reliability": "ok",
                "extension": [
                    {
                        "url": "http://amida.com/fhir/Profile/extensions#observation-type",
                        "valueCoding": {
                            "code": "8716-3",
                            "display": "Vital signs",
                            "system": "http://loinc.org"
                        }
                    }
                ]
            }
        },
        {
            "id": "Observation/e7fd7c9a-bbd8-4299-b8db-95c6bad8976d",
            "content": {
                "resourceType": "Observation",
                "name": {
                    "coding": [
                        {
                            "system": "http://loinc.org",
                            "code": "8480-6",
                            "display": "BP Systolic"
                        }
                    ],
                    "text": "BP Systolic"
                },
                "valueQuantity": {
                    "value": 136,
                    "units": "mm[Hg]",
                    "code": "mm[Hg]",
                    "system": "http://unitsofmeasure.org"
                },
                "issued": "2010-09-30",
                "status": "final",
                "reliability": "ok",
                "extension": [
                    {
                        "url": "http://amida.com/fhir/Profile/extensions#observation-type",
                        "valueCoding": {
                            "code": "8716-3",
                            "display": "Vital signs",
                            "system": "http://loinc.org"
                        }
                    }
                ]
            }
        },
        {
            "id": "Observation/a60564bd-f64c-49cd-a420-4da488583bfc",
            "content": {
                "resourceType": "Observation",
                "name": {
                    "coding": [
                        {
                            "system": "http://loinc.org",
                            "code": "8462-4",
                            "display": "BP Diastolic"
                        }
                    ],
                    "text": "BP Diastolic"
                },
                "valueQuantity": {
                    "value": 82,
                    "units": "mm[Hg]",
                    "code": "mm[Hg]",
                    "system": "http://unitsofmeasure.org"
                },
                "issued": "2010-11-30",
                "status": "final",
                "reliability": "ok",
                "extension": [
                    {
                        "url": "http://amida.com/fhir/Profile/extensions#observation-type",
                        "valueCoding": {
                            "code": "8716-3",
                            "display": "Vital signs",
                            "system": "http://loinc.org"
                        }
                    }
                ]
            }
        },
        {
            "id": "Observation/eef0fa33-3bf8-45c7-9b48-86061a4fccbc",
            "content": {
                "resourceType": "Observation",
                "name": {
                    "coding": [
                        {
                            "system": "http://loinc.org",
                            "code": "8480-6",
                            "display": "BP Systolic"
                        }
                    ],
                    "text": "BP Systolic"
                },
                "valueQuantity": {
                    "value": 130,
                    "units": "mm[Hg]",
                    "code": "mm[Hg]",
                    "system": "http://unitsofmeasure.org"
                },
                "issued": "2010-11-30",
                "status": "final",
                "reliability": "ok",
                "extension": [
                    {
                        "url": "http://amida.com/fhir/Profile/extensions#observation-type",
                        "valueCoding": {
                            "code": "8716-3",
                            "display": "Vital signs",
                            "system": "http://loinc.org"
                        }
                    }
                ]
            }
        },
        {
            "id": "Observation/6c6370b3-8e15-4c0e-93ef-b2be68adeaff",
            "content": {
                "resourceType": "Observation",
                "name": {
                    "coding": [
                        {
                            "system": "http://loinc.org",
                            "code": "55418-8",
                            "display": "Weight and Height tracking panel"
                        }
                    ],
                    "text": "Weight and Height tracking panel"
                },
                "issued": "2010-04-02",
                "status": "final",
                "reliability": "ok",
                "extension": [
                    {
                        "url": "http://amida.com/fhir/Profile/extensions#observation-type",
                        "valueCoding": {
                            "code": "8716-3",
                            "display": "Vital signs",
                            "system": "http://loinc.org"
                        }
                    }
                ],
                "related": [
                    {
                        "type": "has-component",
                        "target": {
                            "reference": "Observation/12d55ffd-2e52-45ad-b568-52e7d8caebb6"
                        }
                    }
                ]
            }
        },
        {
            "id": "Observation/52c55f69-2462-4f98-b84b-08df49e882b9",
            "content": {
                "resourceType": "Observation",
                "name": {
                    "coding": [
                        {
                            "system": "http://loinc.org",
                            "code": "55418-8",
                            "display": "Weight and Height tracking panel"
                        }
                    ],
                    "text": "Weight and Height tracking panel"
                },
                "issued": "2010-07-15",
                "status": "final",
                "reliability": "ok",
                "extension": [
                    {
                        "url": "http://amida.com/fhir/Profile/extensions#observation-type",
                        "valueCoding": {
                            "code": "8716-3",
                            "display": "Vital signs",
                            "system": "http://loinc.org"
                        }
                    }
                ],
                "related": [
                    {
                        "type": "has-component",
                        "target": {
                            "reference": "Observation/467ffe5f-36da-4794-b1a7-69b8d648302b"
                        }
                    }
                ]
            }
        },
        {
            "id": "Observation/b05ea6a8-85cf-452a-b722-8cb32af40b6e",
            "content": {
                "resourceType": "Observation",
                "name": {
                    "coding": [
                        {
                            "system": "http://loinc.org",
                            "code": "35094-2",
                            "display": "Blood pressure panel"
                        }
                    ],
                    "text": "Blood pressure panel"
                },
                "issued": "2010-04-02",
                "status": "final",
                "reliability": "ok",
                "extension": [
                    {
                        "url": "http://amida.com/fhir/Profile/extensions#observation-type",
                        "valueCoding": {
                            "code": "8716-3",
                            "display": "Vital signs",
                            "system": "http://loinc.org"
                        }
                    }
                ],
                "related": [
                    {
                        "type": "has-component",
                        "target": {
                            "reference": "Observation/22ec6bb1-bf7b-4b3c-b092-e9e3d8393d39"
                        }
                    },
                    {
                        "type": "has-component",
                        "target": {
                            "reference": "Observation/f3da3c2c-deab-41d4-812d-fcd7b6640f95"
                        }
                    }
                ]
            }
        },
        {
            "id": "Observation/1352ea0f-f8e8-46b8-aa97-ec574a8e3b82",
            "content": {
                "resourceType": "Observation",
                "name": {
                    "coding": [
                        {
                            "system": "http://loinc.org",
                            "code": "35094-2",
                            "display": "Blood pressure panel"
                        }
                    ],
                    "text": "Blood pressure panel"
                },
                "issued": "2010-05-20",
                "status": "final",
                "reliability": "ok",
                "extension": [
                    {
                        "url": "http://amida.com/fhir/Profile/extensions#observation-type",
                        "valueCoding": {
                            "code": "8716-3",
                            "display": "Vital signs",
                            "system": "http://loinc.org"
                        }
                    }
                ],
                "related": [
                    {
                        "type": "has-component",
                        "target": {
                            "reference": "Observation/770c1cbe-2ed5-4060-9adf-711deb993d52"
                        }
                    },
                    {
                        "type": "has-component",
                        "target": {
                            "reference": "Observation/52f9c0ec-4b7e-4633-981d-61b34a7ebbba"
                        }
                    }
                ]
            }
        },
        {
            "id": "Observation/3e87ce10-c471-4f11-9411-492cc6912547",
            "content": {
                "resourceType": "Observation",
                "name": {
                    "coding": [
                        {
                            "system": "http://loinc.org",
                            "code": "35094-2",
                            "display": "Blood pressure panel"
                        }
                    ],
                    "text": "Blood pressure panel"
                },
                "issued": "2010-07-15",
                "status": "final",
                "reliability": "ok",
                "extension": [
                    {
                        "url": "http://amida.com/fhir/Profile/extensions#observation-type",
                        "valueCoding": {
                            "code": "8716-3",
                            "display": "Vital signs",
                            "system": "http://loinc.org"
                        }
                    }
                ],
                "related": [
                    {
                        "type": "has-component",
                        "target": {
                            "reference": "Observation/f41e2093-0fe9-4951-9d58-7f8ca8632012"
                        }
                    },
                    {
                        "type": "has-component",
                        "target": {
                            "reference": "Observation/9ecbc730-d2ac-4ad2-8aec-04b82258a76c"
                        }
                    }
                ]
            }
        },
        {
            "id": "Observation/1a50eb0c-c1fc-401f-8db0-89be358053dd",
            "content": {
                "resourceType": "Observation",
                "name": {
                    "coding": [
                        {
                            "system": "http://loinc.org",
                            "code": "35094-2",
                            "display": "Blood pressure panel"
                        }
                    ],
                    "text": "Blood pressure panel"
                },
                "issued": "2010-09-30",
                "status": "final",
                "reliability": "ok",
                "extension": [
                    {
                        "url": "http://amida.com/fhir/Profile/extensions#observation-type",
                        "valueCoding": {
                            "code": "8716-3",
                            "display": "Vital signs",
                            "system": "http://loinc.org"
                        }
                    }
                ],
                "related": [
                    {
                        "type": "has-component",
                        "target": {
                            "reference": "Observation/177e5990-a573-4430-82ce-11cf0ea0f079"
                        }
                    },
                    {
                        "type": "has-component",
                        "target": {
                            "reference": "Observation/e7fd7c9a-bbd8-4299-b8db-95c6bad8976d"
                        }
                    }
                ]
            }
        },
        {
            "id": "Observation/1b887a24-b44a-4d84-818c-d1d0f2f62afe",
            "content": {
                "resourceType": "Observation",
                "name": {
                    "coding": [
                        {
                            "system": "http://loinc.org",
                            "code": "35094-2",
                            "display": "Blood pressure panel"
                        }
                    ],
                    "text": "Blood pressure panel"
                },
                "issued": "2010-11-30",
                "status": "final",
                "reliability": "ok",
                "extension": [
                    {
                        "url": "http://amida.com/fhir/Profile/extensions#observation-type",
                        "valueCoding": {
                            "code": "8716-3",
                            "display": "Vital signs",
                            "system": "http://loinc.org"
                        }
                    }
                ],
                "related": [
                    {
                        "type": "has-component",
                        "target": {
                            "reference": "Observation/a60564bd-f64c-49cd-a420-4da488583bfc"
                        }
                    },
                    {
                        "type": "has-component",
                        "target": {
                            "reference": "Observation/eef0fa33-3bf8-45c7-9b48-86061a4fccbc"
                        }
                    }
                ]
            }
        },
        {
            "id": "Condition/2b760cd4-39d1-4073-af3e-a6c80c7671e2",
            "content": {
                "resourceType": "Condition",
                "status": "confirmed",
                "onsetDate": "2010-04-02",
                "dateAsserted": "2010-04-02",
                "code": {
                    "coding": [
                        {
                            "system": "http://snomed.info/sct",
                            "code": "195979001",
                            "display": "Asthma unspecified"
                        }
                    ],
                    "text": "Asthma unspecified"
                }
            }
        },
        {
            "id": "Condition/f0e32216-dbfe-4a07-a738-b5ff0362c258",
            "content": {
                "resourceType": "Condition",
                "status": "confirmed",
                "onsetDate": "2010-04-02",
                "dateAsserted": "2010-04-02",
                "code": {
                    "coding": [
                        {
                            "system": "http://snomed.info/sct",
                            "code": "370202007",
                            "display": "Asthma causes daytime symptoms 1 to 2 times per month"
                        }
                    ],
                    "text": "Asthma causes daytime symptoms 1 to 2 times per month"
                }
            }
        },
        {
            "id": "Condition/82d3db52-d789-4bd8-b044-6dab71c5e35c",
            "content": {
                "resourceType": "Condition",
                "status": "confirmed",
                "onsetDate": "2010-04-02",
                "dateAsserted": "2010-04-02",
                "code": {
                    "coding": [
                        {
                            "system": "http://snomed.info/sct",
                            "code": "370205009",
                            "display": "Asthma causes night symptoms 1 to 2 times per month"
                        }
                    ],
                    "text": "Asthma causes night symptoms 1 to 2 times per month"
                }
            }
        },
        {
            "id": "Condition/a71ad254-3b34-4616-96cf-e31cbc87a85e",
            "content": {
                "resourceType": "Condition",
                "status": "confirmed",
                "onsetDate": "2010-05-20",
                "dateAsserted": "2010-05-20",
                "code": {
                    "coding": [
                        {
                            "system": "http://snomed.info/sct",
                            "code": "279039007",
                            "display": "Low back pain"
                        }
                    ],
                    "text": "Low back pain"
                }
            }
        },
        {
            "id": "Condition/d992d2cd-ee91-404d-9a29-dcf03ba8140e",
            "content": {
                "resourceType": "Condition",
                "status": "confirmed",
                "onsetDate": "2010-07-15",
                "dateAsserted": "2010-07-15",
                "code": {
                    "coding": [
                        {
                            "system": "http://snomed.info/sct",
                            "code": "59621000",
                            "display": "Essential hypertension"
                        }
                    ],
                    "text": "Essential hypertension"
                }
            }
        },
        {
            "id": "Observation/86f4a882-ab5d-4764-b840-fc3da97e6223",
            "content": {
                "resourceType": "Observation",
                "name": {
                    "coding": [
                        {
                            "system": "http://loinc.org",
                            "code": "14646-4",
                            "display": "HDLc SerPl-sCnc"
                        }
                    ],
                    "text": "HDLc SerPl-sCnc"
                },
                "valueQuantity": {
                    "value": 55,
                    "units": "mg/dL",
                    "code": "mg/dL",
                    "system": "http://unitsofmeasure.org"
                },
                "issued": "2010-07-15",
                "status": "final",
                "reliability": "ok",
                "extension": [
                    {
                        "url": "http://amida.com/fhir/Profile/extensions#observation-type",
                        "valueCoding": {
                            "code": "11502-2",
                            "display": "Laboratory report",
                            "system": "http://loinc.org"
                        }
                    }
                ],
                "interpretation": {
                    "coding": [
                        {
                            "system": "http://hl7.org/fhir/v2/0078",
                            "code": "N",
                            "display": "Normal"
                        }
                    ],
                    "text": "Normal"
                },
                "referenceRange": [
                    {
                        "meaning": {
                            "coding": [
                                {
                                    "system": "http://hl7.org/fhir/referencerange-meaning",
                                    "code": "normal",
                                    "display": "Normal Range"
                                }
                            ],
                            "text": "Normal Range"
                        },
                        "text": ">=40 mg/dL"
                    }
                ]
            }
        },
        {
            "id": "Observation/bc114a2b-2d90-4886-ab44-88d243235abf",
            "content": {
                "resourceType": "Observation",
                "name": {
                    "coding": [
                        {
                            "system": "http://loinc.org",
                            "code": "2089-1",
                            "display": "LDLc SerPl-mCnc"
                        }
                    ],
                    "text": "LDLc SerPl-mCnc"
                },
                "valueQuantity": {
                    "value": 105,
                    "units": "mg/dL",
                    "code": "mg/dL",
                    "system": "http://unitsofmeasure.org"
                },
                "issued": "2010-07-15",
                "status": "final",
                "reliability": "ok",
                "extension": [
                    {
                        "url": "http://amida.com/fhir/Profile/extensions#observation-type",
                        "valueCoding": {
                            "code": "11502-2",
                            "display": "Laboratory report",
                            "system": "http://loinc.org"
                        }
                    }
                ],
                "interpretation": {
                    "coding": [
                        {
                            "system": "http://hl7.org/fhir/v2/0078",
                            "code": "N",
                            "display": "Normal"
                        }
                    ],
                    "text": "Normal"
                },
                "referenceRange": [
                    {
                        "meaning": {
                            "coding": [
                                {
                                    "system": "http://hl7.org/fhir/referencerange-meaning",
                                    "code": "normal",
                                    "display": "Normal Range"
                                }
                            ],
                            "text": "Normal Range"
                        },
                        "text": "<130 mg/dL (calc)"
                    }
                ]
            }
        },
        {
            "id": "Observation/07e960db-8d7b-4685-aedc-585090b4ea2f",
            "content": {
                "resourceType": "Observation",
                "name": {
                    "coding": [
                        {
                            "system": "http://loinc.org",
                            "code": "2093-3",
                            "display": "Cholest SerPl-mCnc"
                        }
                    ],
                    "text": "Cholest SerPl-mCnc"
                },
                "valueQuantity": {
                    "value": 185,
                    "units": "mg/dL",
                    "code": "mg/dL",
                    "system": "http://unitsofmeasure.org"
                },
                "issued": "2010-07-15",
                "status": "final",
                "reliability": "ok",
                "extension": [
                    {
                        "url": "http://amida.com/fhir/Profile/extensions#observation-type",
                        "valueCoding": {
                            "code": "11502-2",
                            "display": "Laboratory report",
                            "system": "http://loinc.org"
                        }
                    }
                ],
                "interpretation": {
                    "coding": [
                        {
                            "system": "http://hl7.org/fhir/v2/0078",
                            "code": "N",
                            "display": "Normal"
                        }
                    ],
                    "text": "Normal"
                },
                "referenceRange": [
                    {
                        "meaning": {
                            "coding": [
                                {
                                    "system": "http://hl7.org/fhir/referencerange-meaning",
                                    "code": "normal",
                                    "display": "Normal Range"
                                }
                            ],
                            "text": "Normal Range"
                        },
                        "text": "125-200 mg/dL"
                    }
                ]
            }
        },
        {
            "id": "Observation/845811db-9070-40d5-b365-02c1500d73ae",
            "content": {
                "resourceType": "Observation",
                "name": {
                    "coding": [
                        {
                            "system": "http://loinc.org",
                            "code": "12951-0",
                            "display": "Trigl SerPl Calc-mCnc"
                        }
                    ],
                    "text": "Trigl SerPl Calc-mCnc"
                },
                "valueQuantity": {
                    "value": 125,
                    "units": "mg/dL",
                    "code": "mg/dL",
                    "system": "http://unitsofmeasure.org"
                },
                "issued": "2010-07-15",
                "status": "final",
                "reliability": "ok",
                "extension": [
                    {
                        "url": "http://amida.com/fhir/Profile/extensions#observation-type",
                        "valueCoding": {
                            "code": "11502-2",
                            "display": "Laboratory report",
                            "system": "http://loinc.org"
                        }
                    }
                ],
                "interpretation": {
                    "coding": [
                        {
                            "system": "http://hl7.org/fhir/v2/0078",
                            "code": "N",
                            "display": "Normal"
                        }
                    ],
                    "text": "Normal"
                },
                "referenceRange": [
                    {
                        "meaning": {
                            "coding": [
                                {
                                    "system": "http://hl7.org/fhir/referencerange-meaning",
                                    "code": "normal",
                                    "display": "Normal Range"
                                }
                            ],
                            "text": "Normal Range"
                        },
                        "text": "10-39 years: 55-110 mg/dL | 40-59 years: 70-150 mg/dL | >60 years: 80-150 mg/dL | Therapeutic Target: <100 mg/dL"
                    }
                ]
            }
        },
        {
            "id": "Observation/c39ffce1-e911-445f-bbba-4348dc62819b",
            "content": {
                "resourceType": "Observation",
                "name": {
                    "coding": [
                        {
                            "system": "http://snomed.info/sct",
                            "code": "16254007",
                            "display": "Lipid Panel"
                        }
                    ],
                    "text": "Lipid Panel"
                },
                "status": "final",
                "reliability": "ok",
                "related": [
                    {
                        "type": "has-component",
                        "target": {
                            "reference": "Observation/86f4a882-ab5d-4764-b840-fc3da97e6223"
                        }
                    },
                    {
                        "type": "has-component",
                        "target": {
                            "reference": "Observation/bc114a2b-2d90-4886-ab44-88d243235abf"
                        }
                    },
                    {
                        "type": "has-component",
                        "target": {
                            "reference": "Observation/07e960db-8d7b-4685-aedc-585090b4ea2f"
                        }
                    },
                    {
                        "type": "has-component",
                        "target": {
                            "reference": "Observation/845811db-9070-40d5-b365-02c1500d73ae"
                        }
                    }
                ],
                "extension": [
                    {
                        "url": "http://amida.com/fhir/Profile/extensions#observation-type",
                        "valueCoding": {
                            "code": "11502-2",
                            "display": "Laboratory report",
                            "system": "http://loinc.org"
                        }
                    }
                ]
            }
        },
        {
            "id": "MedicationPrescription/d92c79f2-679d-42fd-80a0-1b8370a379bb",
            "content": {
                "resourceType": "MedicationPrescription",
                "status": "active",
                "dateWritten": "2010-04-02",
                "dosageInstruction": [
                    {
                        "timingPeriod": {
                            "start": "2010-04-02"
                        }
                    }
                ],
                "contained": [
                    {
                        "id": "med",
                        "resourceType": "Medication",
                        "name": "Albuterol 0.83 MG/ML Inhalant Solution",
                        "code": {
                            "coding": [
                                {
                                    "system": "http://www.nlm.nih.gov/research/umls/rxnorm",
                                    "code": "630208",
                                    "display": "Albuterol 0.83 MG/ML Inhalant Solution"
                                }
                            ],
                            "text": "Albuterol 0.83 MG/ML Inhalant Solution"
                        }
                    }
                ],
                "medication": {
                    "reference": "#med",
                    "display": "Albuterol 0.83 MG/ML Inhalant Solution"
                }
            }
        },
        {
            "id": "MedicationAdministration/9e3af917-2479-4271-a4bd-b87200343371",
            "content": {
                "resourceType": "MedicationAdministration",
                "status": "completed",
                "practitioner": {
                    "reference": "Practitioner/unknown",
                    "display": "Unknown"
                },
                "whenGiven": {
                    "start": "2010-04-02"
                },
                "dosage": [
                    {
                        "timingPeriod": {
                            "start": "2010-04-02"
                        }
                    }
                ],
                "prescription": {
                    "reference": "MedicationPrescription/d92c79f2-679d-42fd-80a0-1b8370a379bb"
                },
                "contained": [
                    {
                        "id": "med",
                        "resourceType": "Medication",
                        "name": "Albuterol 0.83 MG/ML Inhalant Solution",
                        "code": {
                            "coding": [
                                {
                                    "system": "http://www.nlm.nih.gov/research/umls/rxnorm",
                                    "code": "630208",
                                    "display": "Albuterol 0.83 MG/ML Inhalant Solution"
                                }
                            ],
                            "text": "Albuterol 0.83 MG/ML Inhalant Solution"
                        }
                    }
                ],
                "medication": {
                    "reference": "#med",
                    "display": "Albuterol 0.83 MG/ML Inhalant Solution"
                }
            }
        },
        {
            "id": "MedicationPrescription/68cad5ff-efbd-4297-8001-07220ab0793b",
            "content": {
                "resourceType": "MedicationPrescription",
                "status": "active",
                "dateWritten": "2010-07-15",
                "dosageInstruction": [
                    {
                        "timingPeriod": {
                            "start": "2010-07-15"
                        }
                    }
                ],
                "contained": [
                    {
                        "id": "med",
                        "resourceType": "Medication",
                        "name": "Enalapril Maleate 10 MG / Hydrochlorothiazide 25 MG Oral Tablet",
                        "code": {
                            "coding": [
                                {
                                    "system": "http://www.nlm.nih.gov/research/umls/rxnorm",
                                    "code": "858828",
                                    "display": "Enalapril Maleate 10 MG / Hydrochlorothiazide 25 MG Oral Tablet"
                                }
                            ],
                            "text": "Enalapril Maleate 10 MG / Hydrochlorothiazide 25 MG Oral Tablet"
                        }
                    }
                ],
                "medication": {
                    "reference": "#med",
                    "display": "Enalapril Maleate 10 MG / Hydrochlorothiazide 25 MG Oral Tablet"
                }
            }
        },
        {
            "id": "MedicationAdministration/8c56b441-46b3-421a-aef4-db770a7e3012",
            "content": {
                "resourceType": "MedicationAdministration",
                "status": "completed",
                "practitioner": {
                    "reference": "Practitioner/unknown",
                    "display": "Unknown"
                },
                "whenGiven": {
                    "start": "2010-07-15"
                },
                "dosage": [
                    {
                        "timingPeriod": {
                            "start": "2010-07-15"
                        }
                    }
                ],
                "prescription": {
                    "reference": "MedicationPrescription/68cad5ff-efbd-4297-8001-07220ab0793b"
                },
                "contained": [
                    {
                        "id": "med",
                        "resourceType": "Medication",
                        "name": "Enalapril Maleate 10 MG / Hydrochlorothiazide 25 MG Oral Tablet",
                        "code": {
                            "coding": [
                                {
                                    "system": "http://www.nlm.nih.gov/research/umls/rxnorm",
                                    "code": "858828",
                                    "display": "Enalapril Maleate 10 MG / Hydrochlorothiazide 25 MG Oral Tablet"
                                }
                            ],
                            "text": "Enalapril Maleate 10 MG / Hydrochlorothiazide 25 MG Oral Tablet"
                        }
                    }
                ],
                "medication": {
                    "reference": "#med",
                    "display": "Enalapril Maleate 10 MG / Hydrochlorothiazide 25 MG Oral Tablet"
                }
            }
        }
    ]
}