{
    "resourceType": "Bundle",
    "totalResults": 24,
    "entry": [
        {
            "id": "Patient/some-id-here-1987",
            "content": {
                "resourceType": "Patient",
                "identifier": [
                    {
                        "system": "http://www.midea-tecg.com",
                        "value": "JOE_DOE_IDENTIFIER"
                    }
                ],
                "name": [
                    {
                        "family": [
                            "DOE"
                        ],
                        "given": [
                            "JOE"
                        ]
                    }
                ]
            }
        },
        {
            "id": "AllergyIntolerance/991f7b7f-1b93-4e9f-a617-d7df371cf060",
            "content": {
                "resourceType": "AllergyIntolerance",
                "criticality": "low",
                "sensitivityType": "allergy",
                "recordedDate": "2010-07-28",
                "status": "confirmed",
                "contained": [
                    {
                        "id": "allergen",
                        "resourceType": "Substance",
                        "type": {
                            "coding": [
                                {
                                    "system": "http://fdasis.nlm.nih.gov",
                                    "code": "291P45F896",
                                    "display": "Eggs"
                                }
                            ],
                            "text": "Eggs"
                        }
                    }
                ],
                "substance": {
                    "reference": "#allergen",
                    "display": "Eggs"
                },
                "subject": {
                    "reference": "Patient/some-id-here-1987",
                    "display": "DOE, JOE"
                }
            }
        },
        {
            "id": "AllergyIntolerance/8e3ab07f-e69d-4cec-b828-9efd4a329296",
            "content": {
                "resourceType": "AllergyIntolerance",
                "criticality": "low",
                "sensitivityType": "allergy",
                "recordedDate": "2010-07-28",
                "status": "confirmed",
                "contained": [
                    {
                        "id": "allergen",
                        "resourceType": "Substance",
                        "type": {
                            "coding": [
                                {
                                    "code": "N0000006691",
                                    "display": "Codeine"
                                }
                            ],
                            "text": "Codeine"
                        }
                    }
                ],
                "substance": {
                    "reference": "#allergen",
                    "display": "Codeine"
                },
                "subject": {
                    "reference": "Patient/some-id-here-1987",
                    "display": "DOE, JOE"
                }
            }
        },
        {
            "id": "Observation/ca1a8295-2a1e-4218-8b56-e01507c0b670",
            "content": {
                "resourceType": "Observation",
                "name": {
                    "coding": [
                        {
                            "system": "http://loinc.org",
                            "code": "39156-5",
                            "display": "BMI"
                        }
                    ],
                    "text": "BMI"
                },
                "valueQuantity": {
                    "value": 22.2,
                    "units": "kg/m2",
                    "code": "kg/m2",
                    "system": "http://unitsofmeasure.org"
                },
                "issued": "2010-07-28",
                "status": "final",
                "reliability": "ok",
                "extension": [
                    {
                        "url": "http://amida.com/fhir/Profile/extensions#observation-type",
                        "valueCoding": {
                            "code": "8716-3",
                            "display": "Vital signs",
                            "system": "http://loinc.org"
                        }
                    }
                ],
                "subject": {
                    "reference": "Patient/some-id-here-1987",
                    "display": "DOE, JOE"
                }
            }
        },
        {
            "id": "Observation/1bac817b-6d07-40ce-8a7c-80e059ff7efe",
            "content": {
                "resourceType": "Observation",
                "name": {
                    "coding": [
                        {
                            "system": "http://loinc.org",
                            "code": "8462-4",
                            "display": "BP Diastolic"
                        }
                    ],
                    "text": "BP Diastolic"
                },
                "valueQuantity": {
                    "value": 93,
                    "units": "mm[Hg]",
                    "code": "mm[Hg]",
                    "system": "http://unitsofmeasure.org"
                },
                "issued": "2010-07-28",
                "status": "final",
                "reliability": "ok",
                "extension": [
                    {
                        "url": "http://amida.com/fhir/Profile/extensions#observation-type",
                        "valueCoding": {
                            "code": "8716-3",
                            "display": "Vital signs",
                            "system": "http://loinc.org"
                        }
                    }
                ],
                "subject": {
                    "reference": "Patient/some-id-here-1987",
                    "display": "DOE, JOE"
                }
            }
        },
        {
            "id": "Observation/30e797cb-7701-4f7d-b94c-51ae4ff8f785",
            "content": {
                "resourceType": "Observation",
                "name": {
                    "coding": [
                        {
                            "system": "http://loinc.org",
                            "code": "8480-6",
                            "display": "BP Systolic"
                        }
                    ],
                    "text": "BP Systolic"
                },
                "valueQuantity": {
                    "value": 120,
                    "units": "mm[Hg]",
                    "code": "mm[Hg]",
                    "system": "http://unitsofmeasure.org"
                },
                "issued": "2010-07-28",
                "status": "final",
                "reliability": "ok",
                "extension": [
                    {
                        "url": "http://amida.com/fhir/Profile/extensions#observation-type",
                        "valueCoding": {
                            "code": "8716-3",
                            "display": "Vital signs",
                            "system": "http://loinc.org"
                        }
                    }
                ],
                "subject": {
                    "reference": "Patient/some-id-here-1987",
                    "display": "DOE, JOE"
                }
            }
        },
        {
            "id": "Observation/920484f3-67f2-49e4-931e-7156f9b0772f",
            "content": {
                "resourceType": "Observation",
                "name": {
                    "coding": [
                        {
                            "system": "http://loinc.org",
                            "code": "39156-5",
                            "display": "BMI"
                        }
                    ],
                    "text": "BMI"
                },
                "valueQuantity": {
                    "value": 21.3,
                    "units": "kg/m2",
                    "code": "kg/m2",
                    "system": "http://unitsofmeasure.org"
                },
                "issued": "2010-11-11",
                "status": "final",
                "reliability": "ok",
                "extension": [
                    {
                        "url": "http://amida.com/fhir/Profile/extensions#observation-type",
                        "valueCoding": {
                            "code": "8716-3",
                            "display": "Vital signs",
                            "system": "http://loinc.org"
                        }
                    }
                ],
                "subject": {
                    "reference": "Patient/some-id-here-1987",
                    "display": "DOE, JOE"
                }
            }
        },
        {
            "id": "Observation/70d91cf2-9678-4652-946c-fead3a587f67",
            "content": {
                "resourceType": "Observation",
                "name": {
                    "coding": [
                        {
                            "system": "http://loinc.org",
                            "code": "55418-8",
                            "display": "Weight and Height tracking panel"
                        }
                    ],
                    "text": "Weight and Height tracking panel"
                },
                "issued": "2010-07-28",
                "status": "final",
                "reliability": "ok",
                "extension": [
                    {
                        "url": "http://amida.com/fhir/Profile/extensions#observation-type",
                        "valueCoding": {
                            "code": "8716-3",
                            "display": "Vital signs",
                            "system": "http://loinc.org"
                        }
                    }
                ],
                "related": [
                    {
                        "type": "has-component",
                        "target": {
                            "reference": "Observation/ca1a8295-2a1e-4218-8b56-e01507c0b670"
                        }
                    }
                ],
                "subject": {
                    "reference": "Patient/some-id-here-1987",
                    "display": "DOE, JOE"
                }
            }
        },
        {
            "id": "Observation/9174c5e0-1b60-4684-945c-105545ede736",
            "content": {
                "resourceType": "Observation",
                "name": {
                    "coding": [
                        {
                            "system": "http://loinc.org",
                            "code": "55418-8",
                            "display": "Weight and Height tracking panel"
                        }
                    ],
                    "text": "Weight and Height tracking panel"
                },
                "issued": "2010-11-11",
                "status": "final",
                "reliability": "ok",
                "extension": [
                    {
                        "url": "http://amida.com/fhir/Profile/extensions#observation-type",
                        "valueCoding": {
                            "code": "8716-3",
                            "display": "Vital signs",
                            "system": "http://loinc.org"
                        }
                    }
                ],
                "related": [
                    {
                        "type": "has-component",
                        "target": {
                            "reference": "Observation/920484f3-67f2-49e4-931e-7156f9b0772f"
                        }
                    }
                ],
                "subject": {
                    "reference": "Patient/some-id-here-1987",
                    "display": "DOE, JOE"
                }
            }
        },
        {
            "id": "Observation/18f03870-5c6e-40f2-b702-8a8daa096c7b",
            "content": {
                "resourceType": "Observation",
                "name": {
                    "coding": [
                        {
                            "system": "http://loinc.org",
                            "code": "35094-2",
                            "display": "Blood pressure panel"
                        }
                    ],
                    "text": "Blood pressure panel"
                },
                "issued": "2010-07-28",
                "status": "final",
                "reliability": "ok",
                "extension": [
                    {
                        "url": "http://amida.com/fhir/Profile/extensions#observation-type",
                        "valueCoding": {
                            "code": "8716-3",
                            "display": "Vital signs",
                            "system": "http://loinc.org"
                        }
                    }
                ],
                "related": [
                    {
                        "type": "has-component",
                        "target": {
                            "reference": "Observation/1bac817b-6d07-40ce-8a7c-80e059ff7efe"
                        }
                    },
                    {
                        "type": "has-component",
                        "target": {
                            "reference": "Observation/30e797cb-7701-4f7d-b94c-51ae4ff8f785"
                        }
                    }
                ],
                "subject": {
                    "reference": "Patient/some-id-here-1987",
                    "display": "DOE, JOE"
                }
            }
        },
        {
            "id": "Condition/e49a8c7e-ee2a-432b-898a-8935c238f0fa",
            "content": {
                "resourceType": "Condition",
                "status": "confirmed",
                "onsetDate": "2010-07-28",
                "dateAsserted": "2010-07-28",
                "code": {
                    "coding": [
                        {
                            "system": "http://snomed.info/sct",
                            "code": "44054006",
                            "display": "Diabetes mellitus type 2"
                        }
                    ],
                    "text": "Diabetes mellitus type 2"
                },
                "subject": {
                    "reference": "Patient/some-id-here-1987",
                    "display": "DOE, JOE"
                }
            }
        },
        {
            "id": "Observation/17dd1223-c2d2-4074-894e-6370d5e212eb",
            "content": {
                "resourceType": "Observation",
                "name": {
                    "coding": [
                        {
                            "system": "http://loinc.org",
                            "code": "4548-4",
                            "display": "Hgb A1c MFr Bld"
                        }
                    ],
                    "text": "Hgb A1c MFr Bld"
                },
                "valueQuantity": {
                    "value": 7,
                    "units": "%",
                    "code": "%",
                    "system": "http://unitsofmeasure.org"
                },
                "issued": "2010-07-28",
                "status": "final",
                "reliability": "ok",
                "extension": [
                    {
                        "url": "http://amida.com/fhir/Profile/extensions#observation-type",
                        "valueCoding": {
                            "code": "11502-2",
                            "display": "Laboratory report",
                            "system": "http://loinc.org"
                        }
                    }
                ],
                "interpretation": {
                    "coding": [
                        {
                            "system": "http://hl7.org/fhir/v2/0078",
                            "code": "N",
                            "display": "Normal"
                        }
                    ],
                    "text": "Normal"
                },
                "referenceRange": [
                    {
                        "meaning": {
                            "coding": [
                                {
                                    "system": "http://hl7.org/fhir/referencerange-meaning",
                                    "code": "normal",
                                    "display": "Normal Range"
                                }
                            ],
                            "text": "Normal Range"
                        },
                        "text": "4-5.6%"
                    }
                ],
                "subject": {
                    "reference": "Patient/some-id-here-1987",
                    "display": "DOE, JOE"
                }
            }
        },
        {
            "id": "Observation/ea92207c-1b74-4181-987d-164e4be77b9a",
            "content": {
                "resourceType": "Observation",
                "name": {
                    "coding": [
                        {
                            "system": "http://snomed.info/sct",
                            "code": "166312007",
                            "display": "Blood Chemistry"
                        }
                    ],
                    "text": "Blood Chemistry"
                },
                "status": "final",
                "reliability": "ok",
                "related": [
                    {
                        "type": "has-component",
                        "target": {
                            "reference": "Observation/17dd1223-c2d2-4074-894e-6370d5e212eb"
                        }
                    }
                ],
                "extension": [
                    {
                        "url": "http://amida.com/fhir/Profile/extensions#observation-type",
                        "valueCoding": {
                            "code": "11502-2",
                            "display": "Laboratory report",
                            "system": "http://loinc.org"
                        }
                    }
                ],
                "subject": {
                    "reference": "Patient/some-id-here-1987",
                    "display": "DOE, JOE"
                }
            }
        },
        {
            "id": "Observation/029dfc46-3d19-4bde-a27a-b61688841f6b",
            "content": {
                "resourceType": "Observation",
                "name": {
                    "coding": [
                        {
                            "system": "http://loinc.org",
                            "code": "14646-4",
                            "display": "HDLc SerPl-sCnc"
                        }
                    ],
                    "text": "HDLc SerPl-sCnc"
                },
                "valueQuantity": {
                    "value": 56,
                    "units": "mg/dL",
                    "code": "mg/dL",
                    "system": "http://unitsofmeasure.org"
                },
                "issued": "2010-07-28",
                "status": "final",
                "reliability": "ok",
                "extension": [
                    {
                        "url": "http://amida.com/fhir/Profile/extensions#observation-type",
                        "valueCoding": {
                            "code": "11502-2",
                            "display": "Laboratory report",
                            "system": "http://loinc.org"
                        }
                    }
                ],
                "interpretation": {
                    "coding": [
                        {
                            "system": "http://hl7.org/fhir/v2/0078",
                            "code": "N",
                            "display": "Normal"
                        }
                    ],
                    "text": "Normal"
                },
                "referenceRange": [
                    {
                        "meaning": {
                            "coding": [
                                {
                                    "system": "http://hl7.org/fhir/referencerange-meaning",
                                    "code": "normal",
                                    "display": "Normal Range"
                                }
                            ],
                            "text": "Normal Range"
                        },
                        "text": ">=40 mg/dL"
                    }
                ],
                "subject": {
                    "reference": "Patient/some-id-here-1987",
                    "display": "DOE, JOE"
                }
            }
        },
        {
            "id": "Observation/988a5728-3565-4450-b698-2508f183a375",
            "content": {
                "resourceType": "Observation",
                "name": {
                    "coding": [
                        {
                            "system": "http://loinc.org",
                            "code": "2089-1",
                            "display": "LDLc SerPl-mCnc"
                        }
                    ],
                    "text": "LDLc SerPl-mCnc"
                },
                "valueQuantity": {
                    "value": 85,
                    "units": "mg/dL",
                    "code": "mg/dL",
                    "system": "http://unitsofmeasure.org"
                },
                "issued": "2010-07-28",
                "status": "final",
                "reliability": "ok",
                "extension": [
                    {
                        "url": "http://amida.com/fhir/Profile/extensions#observation-type",
                        "valueCoding": {
                            "code": "11502-2",
                            "display": "Laboratory report",
                            "system": "http://loinc.org"
                        }
                    }
                ],
                "interpretation": {
                    "coding": [
                        {
                            "system": "http://hl7.org/fhir/v2/0078",
                            "code": "N",
                            "display": "Normal"
                        }
                    ],
                    "text": "Normal"
                },
                "referenceRange": [
                    {
                        "meaning": {
                            "coding": [
                                {
                                    "system": "http://hl7.org/fhir/referencerange-meaning",
                                    "code": "normal",
                                    "display": "Normal Range"
                                }
                            ],
                            "text": "Normal Range"
                        },
                        "text": "<130 mg/dL (calc)"
                    }
                ],
                "subject": {
                    "reference": "Patient/some-id-here-1987",
                    "display": "DOE, JOE"
                }
            }
        },
        {
            "id": "Observation/fec7d543-058e-4bb4-9e00-868f11e78a32",
            "content": {
                "resourceType": "Observation",
                "name": {
                    "coding": [
                        {
                            "system": "http://loinc.org",
                            "code": "2093-3",
                            "display": "Cholest SerPl-mCnc"
                        }
                    ],
                    "text": "Cholest SerPl-mCnc"
                },
                "valueQuantity": {
                    "value": 165,
                    "units": "mg/dL",
                    "code": "mg/dL",
                    "system": "http://unitsofmeasure.org"
                },
                "issued": "2010-07-28",
                "status": "final",
                "reliability": "ok",
                "extension": [
                    {
                        "url": "http://amida.com/fhir/Profile/extensions#observation-type",
                        "valueCoding": {
                            "code": "11502-2",
                            "display": "Laboratory report",
                            "system": "http://loinc.org"
                        }
                    }
                ],
                "interpretation": {
                    "coding": [
                        {
                            "system": "http://hl7.org/fhir/v2/0078",
                            "code": "N",
                            "display": "Normal"
                        }
                    ],
                    "text": "Normal"
                },
                "referenceRange": [
                    {
                        "meaning": {
                            "coding": [
                                {
                                    "system": "http://hl7.org/fhir/referencerange-meaning",
                                    "code": "normal",
                                    "display": "Normal Range"
                                }
                            ],
                            "text": "Normal Range"
                        },
                        "text": "125-200 mg/dL"
                    }
                ],
                "subject": {
                    "reference": "Patient/some-id-here-1987",
                    "display": "DOE, JOE"
                }
            }
        },
        {
            "id": "Observation/2c6dd549-09ef-43a7-acb4-b0c5aea4e273",
            "content": {
                "resourceType": "Observation",
                "name": {
                    "coding": [
                        {
                            "system": "http://loinc.org",
                            "code": "12951-0",
                            "display": "Trigl SerPl Calc-mCnc"
                        }
                    ],
                    "text": "Trigl SerPl Calc-mCnc"
                },
                "valueQuantity": {
                    "value": 120,
                    "units": "mg/dL",
                    "code": "mg/dL",
                    "system": "http://unitsofmeasure.org"
                },
                "issued": "2010-07-28",
                "status": "final",
                "reliability": "ok",
                "extension": [
                    {
                        "url": "http://amida.com/fhir/Profile/extensions#observation-type",
                        "valueCoding": {
                            "code": "11502-2",
                            "display": "Laboratory report",
                            "system": "http://loinc.org"
                        }
                    }
                ],
                "interpretation": {
                    "coding": [
                        {
                            "system": "http://hl7.org/fhir/v2/0078",
                            "code": "N",
                            "display": "Normal"
                        }
                    ],
                    "text": "Normal"
                },
                "referenceRange": [
                    {
                        "meaning": {
                            "coding": [
                                {
                                    "system": "http://hl7.org/fhir/referencerange-meaning",
                                    "code": "normal",
                                    "display": "Normal Range"
                                }
                            ],
                            "text": "Normal Range"
                        },
                        "text": "10-39 years: 55-110 mg/dL | 40-59 years: 70-150 mg/dL | >60 years: 80-150 mg/dL | Therapeutic Target: <100 mg/dL"
                    }
                ],
                "subject": {
                    "reference": "Patient/some-id-here-1987",
                    "display": "DOE, JOE"
                }
            }
        },
        {
            "id": "Observation/36ef4baa-fb1f-4e97-a354-ab5e5a1b2a3c",
            "content": {
                "resourceType": "Observation",
                "name": {
                    "coding": [
                        {
                            "system": "http://snomed.info/sct",
                            "code": "16254007",
                            "display": "Lipid Panel"
                        }
                    ],
                    "text": "Lipid Panel"
                },
                "status": "final",
                "reliability": "ok",
                "related": [
                    {
                        "type": "has-component",
                        "target": {
                            "reference": "Observation/029dfc46-3d19-4bde-a27a-b61688841f6b"
                        }
                    },
                    {
                        "type": "has-component",
                        "target": {
                            "reference": "Observation/988a5728-3565-4450-b698-2508f183a375"
                        }
                    },
                    {
                        "type": "has-component",
                        "target": {
                            "reference": "Observation/fec7d543-058e-4bb4-9e00-868f11e78a32"
                        }
                    },
                    {
                        "type": "has-component",
                        "target": {
                            "reference": "Observation/2c6dd549-09ef-43a7-acb4-b0c5aea4e273"
                        }
                    }
                ],
                "extension": [
                    {
                        "url": "http://amida.com/fhir/Profile/extensions#observation-type",
                        "valueCoding": {
                            "code": "11502-2",
                            "display": "Laboratory report",
                            "system": "http://loinc.org"
                        }
                    }
                ],
                "subject": {
                    "reference": "Patient/some-id-here-1987",
                    "display": "DOE, JOE"
                }
            }
        },
        {
            "id": "Observation/4ca7d742-3302-45f9-b091-6f9222564558",
            "content": {
                "resourceType": "Observation",
                "name": {
                    "coding": [
                        {
                            "system": "http://loinc.org",
                            "code": "4548-4",
                            "display": "Hgb A1c MFr Bld"
                        }
                    ],
                    "text": "Hgb A1c MFr Bld"
                },
                "valueQuantity": {
                    "value": 6.6,
                    "units": "%",
                    "code": "%",
                    "system": "http://unitsofmeasure.org"
                },
                "issued": "2010-11-11",
                "status": "final",
                "reliability": "ok",
                "extension": [
                    {
                        "url": "http://amida.com/fhir/Profile/extensions#observation-type",
                        "valueCoding": {
                            "code": "11502-2",
                            "display": "Laboratory report",
                            "system": "http://loinc.org"
                        }
                    }
                ],
                "interpretation": {
                    "coding": [
                        {
                            "system": "http://hl7.org/fhir/v2/0078",
                            "code": "N",
                            "display": "Normal"
                        }
                    ],
                    "text": "Normal"
                },
                "referenceRange": [
                    {
                        "meaning": {
                            "coding": [
                                {
                                    "system": "http://hl7.org/fhir/referencerange-meaning",
                                    "code": "normal",
                                    "display": "Normal Range"
                                }
                            ],
                            "text": "Normal Range"
                        },
                        "text": "4-5.6%"
                    }
                ],
                "subject": {
                    "reference": "Patient/some-id-here-1987",
                    "display": "DOE, JOE"
                }
            }
        },
        {
            "id": "Observation/d388dcfd-0dcc-45f8-a9ea-86722ce8e5bd",
            "content": {
                "resourceType": "Observation",
                "name": {
                    "coding": [
                        {
                            "system": "http://snomed.info/sct",
                            "code": "166312007",
                            "display": "Blood Chemistry"
                        }
                    ],
                    "text": "Blood Chemistry"
                },
                "status": "final",
                "reliability": "ok",
                "related": [
                    {
                        "type": "has-component",
                        "target": {
                            "reference": "Observation/4ca7d742-3302-45f9-b091-6f9222564558"
                        }
                    }
                ],
                "extension": [
                    {
                        "url": "http://amida.com/fhir/Profile/extensions#observation-type",
                        "valueCoding": {
                            "code": "11502-2",
                            "display": "Laboratory report",
                            "system": "http://loinc.org"
                        }
                    }
                ],
                "subject": {
                    "reference": "Patient/some-id-here-1987",
                    "display": "DOE, JOE"
                }
            }
        },
        {
            "id": "MedicationPrescription/007bebf1-e042-40fa-b7bb-03086ed54918",
            "content": {
                "resourceType": "MedicationPrescription",
                "status": "active",
                "dateWritten": "2010-07-28",
                "dosageInstruction": [
                    {
                        "timingPeriod": {
                            "start": "2010-07-28"
                        }
                    }
                ],
                "contained": [
                    {
                        "id": "med",
                        "resourceType": "Medication",
                        "name": "Glyburide 2.5 MG / Metformin hydrochloride 500 MG Oral Tablet",
                        "code": {
                            "coding": [
                                {
                                    "system": "http://www.nlm.nih.gov/research/umls/rxnorm",
                                    "code": "861748",
                                    "display": "Glyburide 2.5 MG / Metformin hydrochloride 500 MG Oral Tablet"
                                }
                            ],
                            "text": "Glyburide 2.5 MG / Metformin hydrochloride 500 MG Oral Tablet"
                        }
                    }
                ],
                "medication": {
                    "reference": "#med",
                    "display": "Glyburide 2.5 MG / Metformin hydrochloride 500 MG Oral Tablet"
                },
                "patient": {
                    "reference": "Patient/some-id-here-1987",
                    "display": "DOE, JOE"
                }
            }
        },
        {
            "id": "MedicationAdministration/7c2ba94c-1a29-42f1-80c0-96f9e4138e8b",
            "content": {
                "resourceType": "MedicationAdministration",
                "status": "completed",
                "practitioner": {
                    "reference": "Practitioner/unknown",
                    "display": "Unknown"
                },
                "whenGiven": {
                    "start": "2010-07-28"
                },
                "dosage": [
                    {
                        "timingPeriod": {
                            "start": "2010-07-28"
                        }
                    }
                ],
                "prescription": {
                    "reference": "MedicationPrescription/007bebf1-e042-40fa-b7bb-03086ed54918"
                },
                "contained": [
                    {
                        "id": "med",
                        "resourceType": "Medication",
                        "name": "Glyburide 2.5 MG / Metformin hydrochloride 500 MG Oral Tablet",
                        "code": {
                            "coding": [
                                {
                                    "system": "http://www.nlm.nih.gov/research/umls/rxnorm",
                                    "code": "861748",
                                    "display": "Glyburide 2.5 MG / Metformin hydrochloride 500 MG Oral Tablet"
                                }
                            ],
                            "text": "Glyburide 2.5 MG / Metformin hydrochloride 500 MG Oral Tablet"
                        }
                    }
                ],
                "medication": {
                    "reference": "#med",
                    "display": "Glyburide 2.5 MG / Metformin hydrochloride 500 MG Oral Tablet"
                },
                "patient": {
                    "reference": "Patient/some-id-here-1987",
                    "display": "DOE, JOE"
                }
            }
        },
        {
            "id": "MedicationPrescription/f9d853dc-db40-4736-b844-638ea843c1e5",
            "content": {
                "resourceType": "MedicationPrescription",
                "status": "active",
                "dateWritten": "2010-07-28",
                "dosageInstruction": [
                    {
                        "timingPeriod": {
                            "start": "2010-07-28"
                        }
                    }
                ],
                "contained": [
                    {
                        "id": "med",
                        "resourceType": "Medication",
                        "name": "3 ML Insulin Lispro 100 UNT/ML Prefilled Syringe",
                        "code": {
                            "coding": [
                                {
                                    "system": "http://www.nlm.nih.gov/research/umls/rxnorm",
                                    "code": "847207",
                                    "display": "3 ML Insulin Lispro 100 UNT/ML Prefilled Syringe"
                                }
                            ],
                            "text": "3 ML Insulin Lispro 100 UNT/ML Prefilled Syringe"
                        }
                    }
                ],
                "medication": {
                    "reference": "#med",
                    "display": "3 ML Insulin Lispro 100 UNT/ML Prefilled Syringe"
                },
                "patient": {
                    "reference": "Patient/some-id-here-1987",
                    "display": "DOE, JOE"
                }
            }
        },
        {
            "id": "MedicationAdministration/2f172ebb-d3a8-4d08-ad67-057a8bb398c0",
            "content": {
                "resourceType": "MedicationAdministration",
                "status": "completed",
                "practitioner": {
                    "reference": "Practitioner/unknown",
                    "display": "Unknown"
                },
                "whenGiven": {
                    "start": "2010-07-28"
                },
                "dosage": [
                    {
                        "timingPeriod": {
                            "start": "2010-07-28"
                        }
                    }
                ],
                "prescription": {
                    "reference": "MedicationPrescription/f9d853dc-db40-4736-b844-638ea843c1e5"
                },
                "contained": [
                    {
                        "id": "med",
                        "resourceType": "Medication",
                        "name": "3 ML Insulin Lispro 100 UNT/ML Prefilled Syringe",
                        "code": {
                            "coding": [
                                {
                                    "system": "http://www.nlm.nih.gov/research/umls/rxnorm",
                                    "code": "847207",
                                    "display": "3 ML Insulin Lispro 100 UNT/ML Prefilled Syringe"
                                }
                            ],
                            "text": "3 ML Insulin Lispro 100 UNT/ML Prefilled Syringe"
                        }
                    }
                ],
                "medication": {
                    "reference": "#med",
                    "display": "3 ML Insulin Lispro 100 UNT/ML Prefilled Syringe"
                },
                "patient": {
                    "reference": "Patient/some-id-here-1987",
                    "display": "DOE, JOE"
                }
            }
        }
    ]
}