{
    "resourceType": "Bundle",
    "totalResults": 36,
    "entry": [
        {
            "id": "AllergyIntolerance/b4101a40-73e3-4245-a6af-d7716ffdc92b",
            "content": {
                "resourceType": "AllergyIntolerance",
                "criticality": "low",
                "sensitivityType": "allergy",
                "recordedDate": "2010-04-02",
                "status": "confirmed",
                "contained": [
                    {
                        "id": "allergen",
                        "resourceType": "Substance",
                        "type": {
                            "coding": [
                                {
                                    "system": "http://fdasis.nlm.nih.gov",
                                    "code": "291P45F896",
                                    "display": "Eggs"
                                }
                            ],
                            "text": "Eggs"
                        }
                    }
                ],
                "substance": {
                    "reference": "#allergen",
                    "display": "Eggs"
                }
            }
        },
        {
            "id": "AllergyIntolerance/164e1c88-32fe-4ef8-b42a-892aa9cc88c1",
            "content": {
                "resourceType": "AllergyIntolerance",
                "criticality": "medium",
                "sensitivityType": "allergy",
                "recordedDate": "2010-04-02",
                "status": "confirmed",
                "contained": [
                    {
                        "id": "allergen",
                        "resourceType": "Substance",
                        "type": {
                            "coding": [
                                {
                                    "system": "http://www.nlm.nih.gov/research/umls/rxnorm",
                                    "code": "866041",
                                    "display": "Neomycin Sulfate 500 MG"
                                }
                            ],
                            "text": "Neomycin Sulfate 500 MG"
                        }
                    }
                ],
                "substance": {
                    "reference": "#allergen",
                    "display": "Neomycin Sulfate 500 MG"
                }
            }
        },
        {
            "id": "AllergyIntolerance/1525e92b-fb31-448a-acb1-184f8c331c51",
            "content": {
                "resourceType": "AllergyIntolerance",
                "criticality": "fatal",
                "sensitivityType": "allergy",
                "recordedDate": "2010-04-02",
                "status": "confirmed",
                "contained": [
                    {
                        "id": "allergen",
                        "resourceType": "Substance",
                        "type": {
                            "coding": [
                                {
                                    "code": "N0000011298",
                                    "display": "Penicillin V"
                                }
                            ],
                            "text": "Penicillin V"
                        }
                    }
                ],
                "substance": {
                    "reference": "#allergen",
                    "display": "Penicillin V"
                }
            }
        },
        {
            "id": "Observation/5e7536e4-91db-48df-aea0-7854eb167fee",
            "content": {
                "resourceType": "Observation",
                "name": {
                    "coding": [
                        {
                            "system": "http://loinc.org",
                            "code": "39156-5",
                            "display": "BMI"
                        }
                    ],
                    "text": "BMI"
                },
                "valueQuantity": {
                    "value": 35.9,
                    "units": "kg/m2",
                    "code": "kg/m2",
                    "system": "http://unitsofmeasure.org"
                },
                "issued": "2010-04-02",
                "status": "final",
                "reliability": "ok",
                "extension": [
                    {
                        "url": "http://amida.com/fhir/Profile/extensions#observation-type",
                        "valueCoding": {
                            "code": "8716-3",
                            "display": "Vital signs",
                            "system": "http://loinc.org"
                        }
                    }
                ]
            }
        },
        {
            "id": "Observation/401cb983-cf98-47d6-b110-676af2f4f860",
            "content": {
                "resourceType": "Observation",
                "name": {
                    "coding": [
                        {
                            "system": "http://loinc.org",
                            "code": "8462-4",
                            "display": "BP Diastolic"
                        }
                    ],
                    "text": "BP Diastolic"
                },
                "valueQuantity": {
                    "value": 86,
                    "units": "mm[Hg]",
                    "code": "mm[Hg]",
                    "system": "http://unitsofmeasure.org"
                },
                "issued": "2010-04-02",
                "status": "final",
                "reliability": "ok",
                "extension": [
                    {
                        "url": "http://amida.com/fhir/Profile/extensions#observation-type",
                        "valueCoding": {
                            "code": "8716-3",
                            "display": "Vital signs",
                            "system": "http://loinc.org"
                        }
                    }
                ]
            }
        },
        {
            "id": "Observation/c15bb50f-cb5d-4fb8-ab37-caf131f0d052",
            "content": {
                "resourceType": "Observation",
                "name": {
                    "coding": [
                        {
                            "system": "http://loinc.org",
                            "code": "8480-6",
                            "display": "BP Systolic"
                        }
                    ],
                    "text": "BP Systolic"
                },
                "valueQuantity": {
                    "value": 132,
                    "units": "mm[Hg]",
                    "code": "mm[Hg]",
                    "system": "http://unitsofmeasure.org"
                },
                "issued": "2010-04-02",
                "status": "final",
                "reliability": "ok",
                "extension": [
                    {
                        "url": "http://amida.com/fhir/Profile/extensions#observation-type",
                        "valueCoding": {
                            "code": "8716-3",
                            "display": "Vital signs",
                            "system": "http://loinc.org"
                        }
                    }
                ]
            }
        },
        {
            "id": "Observation/31b144c7-d23b-476b-bc28-9ec41a71c4d9",
            "content": {
                "resourceType": "Observation",
                "name": {
                    "coding": [
                        {
                            "system": "http://loinc.org",
                            "code": "8462-4",
                            "display": "BP Diastolic"
                        }
                    ],
                    "text": "BP Diastolic"
                },
                "valueQuantity": {
                    "value": 92,
                    "units": "mm[Hg]",
                    "code": "mm[Hg]",
                    "system": "http://unitsofmeasure.org"
                },
                "issued": "2010-05-20",
                "status": "final",
                "reliability": "ok",
                "extension": [
                    {
                        "url": "http://amida.com/fhir/Profile/extensions#observation-type",
                        "valueCoding": {
                            "code": "8716-3",
                            "display": "Vital signs",
                            "system": "http://loinc.org"
                        }
                    }
                ]
            }
        },
        {
            "id": "Observation/1879cc59-1ab7-44bc-93a2-55991511e0d1",
            "content": {
                "resourceType": "Observation",
                "name": {
                    "coding": [
                        {
                            "system": "http://loinc.org",
                            "code": "8480-6",
                            "display": "BP Systolic"
                        }
                    ],
                    "text": "BP Systolic"
                },
                "valueQuantity": {
                    "value": 142,
                    "units": "mm[Hg]",
                    "code": "mm[Hg]",
                    "system": "http://unitsofmeasure.org"
                },
                "issued": "2010-05-20",
                "status": "final",
                "reliability": "ok",
                "extension": [
                    {
                        "url": "http://amida.com/fhir/Profile/extensions#observation-type",
                        "valueCoding": {
                            "code": "8716-3",
                            "display": "Vital signs",
                            "system": "http://loinc.org"
                        }
                    }
                ]
            }
        },
        {
            "id": "Observation/b9315378-7604-4be4-817c-4ca3e2856248",
            "content": {
                "resourceType": "Observation",
                "name": {
                    "coding": [
                        {
                            "system": "http://loinc.org",
                            "code": "39156-5",
                            "display": "BMI"
                        }
                    ],
                    "text": "BMI"
                },
                "valueQuantity": {
                    "value": 33.7,
                    "units": "kg/m2",
                    "code": "kg/m2",
                    "system": "http://unitsofmeasure.org"
                },
                "issued": "2010-07-15",
                "status": "final",
                "reliability": "ok",
                "extension": [
                    {
                        "url": "http://amida.com/fhir/Profile/extensions#observation-type",
                        "valueCoding": {
                            "code": "8716-3",
                            "display": "Vital signs",
                            "system": "http://loinc.org"
                        }
                    }
                ]
            }
        },
        {
            "id": "Observation/9141f66f-abf6-41d2-b965-1f84869f93d4",
            "content": {
                "resourceType": "Observation",
                "name": {
                    "coding": [
                        {
                            "system": "http://loinc.org",
                            "code": "8462-4",
                            "display": "BP Diastolic"
                        }
                    ],
                    "text": "BP Diastolic"
                },
                "valueQuantity": {
                    "value": 94,
                    "units": "mm[Hg]",
                    "code": "mm[Hg]",
                    "system": "http://unitsofmeasure.org"
                },
                "issued": "2010-07-15",
                "status": "final",
                "reliability": "ok",
                "extension": [
                    {
                        "url": "http://amida.com/fhir/Profile/extensions#observation-type",
                        "valueCoding": {
                            "code": "8716-3",
                            "display": "Vital signs",
                            "system": "http://loinc.org"
                        }
                    }
                ]
            }
        },
        {
            "id": "Observation/dcfdfbef-c3bb-4731-a0d5-586e961af399",
            "content": {
                "resourceType": "Observation",
                "name": {
                    "coding": [
                        {
                            "system": "http://loinc.org",
                            "code": "8480-6",
                            "display": "BP Systolic"
                        }
                    ],
                    "text": "BP Systolic"
                },
                "valueQuantity": {
                    "value": 144,
                    "units": "mm[Hg]",
                    "code": "mm[Hg]",
                    "system": "http://unitsofmeasure.org"
                },
                "issued": "2010-07-15",
                "status": "final",
                "reliability": "ok",
                "extension": [
                    {
                        "url": "http://amida.com/fhir/Profile/extensions#observation-type",
                        "valueCoding": {
                            "code": "8716-3",
                            "display": "Vital signs",
                            "system": "http://loinc.org"
                        }
                    }
                ]
            }
        },
        {
            "id": "Observation/2deb577b-4478-45f8-9990-584073ecee2d",
            "content": {
                "resourceType": "Observation",
                "name": {
                    "coding": [
                        {
                            "system": "http://loinc.org",
                            "code": "8462-4",
                            "display": "BP Diastolic"
                        }
                    ],
                    "text": "BP Diastolic"
                },
                "valueQuantity": {
                    "value": 86,
                    "units": "mm[Hg]",
                    "code": "mm[Hg]",
                    "system": "http://unitsofmeasure.org"
                },
                "issued": "2010-09-30",
                "status": "final",
                "reliability": "ok",
                "extension": [
                    {
                        "url": "http://amida.com/fhir/Profile/extensions#observation-type",
                        "valueCoding": {
                            "code": "8716-3",
                            "display": "Vital signs",
                            "system": "http://loinc.org"
                        }
                    }
                ]
            }
        },
        {
            "id": "Observation/ed9aa5be-7c60-45a3-9b4e-f469a6a57bb3",
            "content": {
                "resourceType": "Observation",
                "name": {
                    "coding": [
                        {
                            "system": "http://loinc.org",
                            "code": "8480-6",
                            "display": "BP Systolic"
                        }
                    ],
                    "text": "BP Systolic"
                },
                "valueQuantity": {
                    "value": 136,
                    "units": "mm[Hg]",
                    "code": "mm[Hg]",
                    "system": "http://unitsofmeasure.org"
                },
                "issued": "2010-09-30",
                "status": "final",
                "reliability": "ok",
                "extension": [
                    {
                        "url": "http://amida.com/fhir/Profile/extensions#observation-type",
                        "valueCoding": {
                            "code": "8716-3",
                            "display": "Vital signs",
                            "system": "http://loinc.org"
                        }
                    }
                ]
            }
        },
        {
            "id": "Observation/b559ab58-b44f-4ced-8907-bd372754c5f5",
            "content": {
                "resourceType": "Observation",
                "name": {
                    "coding": [
                        {
                            "system": "http://loinc.org",
                            "code": "8462-4",
                            "display": "BP Diastolic"
                        }
                    ],
                    "text": "BP Diastolic"
                },
                "valueQuantity": {
                    "value": 82,
                    "units": "mm[Hg]",
                    "code": "mm[Hg]",
                    "system": "http://unitsofmeasure.org"
                },
                "issued": "2010-11-30",
                "status": "final",
                "reliability": "ok",
                "extension": [
                    {
                        "url": "http://amida.com/fhir/Profile/extensions#observation-type",
                        "valueCoding": {
                            "code": "8716-3",
                            "display": "Vital signs",
                            "system": "http://loinc.org"
                        }
                    }
                ]
            }
        },
        {
            "id": "Observation/e5b9152a-417b-44c6-8646-22007d92a894",
            "content": {
                "resourceType": "Observation",
                "name": {
                    "coding": [
                        {
                            "system": "http://loinc.org",
                            "code": "8480-6",
                            "display": "BP Systolic"
                        }
                    ],
                    "text": "BP Systolic"
                },
                "valueQuantity": {
                    "value": 130,
                    "units": "mm[Hg]",
                    "code": "mm[Hg]",
                    "system": "http://unitsofmeasure.org"
                },
                "issued": "2010-11-30",
                "status": "final",
                "reliability": "ok",
                "extension": [
                    {
                        "url": "http://amida.com/fhir/Profile/extensions#observation-type",
                        "valueCoding": {
                            "code": "8716-3",
                            "display": "Vital signs",
                            "system": "http://loinc.org"
                        }
                    }
                ]
            }
        },
        {
            "id": "Observation/cc0a7b55-147e-4a26-bf44-1d9c50737663",
            "content": {
                "resourceType": "Observation",
                "name": {
                    "coding": [
                        {
                            "system": "http://loinc.org",
                            "code": "55418-8",
                            "display": "Weight and Height tracking panel"
                        }
                    ],
                    "text": "Weight and Height tracking panel"
                },
                "issued": "2010-04-02",
                "status": "final",
                "reliability": "ok",
                "extension": [
                    {
                        "url": "http://amida.com/fhir/Profile/extensions#observation-type",
                        "valueCoding": {
                            "code": "8716-3",
                            "display": "Vital signs",
                            "system": "http://loinc.org"
                        }
                    }
                ],
                "related": [
                    {
                        "type": "has-component",
                        "target": {
                            "reference": "Observation/5e7536e4-91db-48df-aea0-7854eb167fee"
                        }
                    }
                ]
            }
        },
        {
            "id": "Observation/136781d3-73eb-4e25-aaa0-ccef17681497",
            "content": {
                "resourceType": "Observation",
                "name": {
                    "coding": [
                        {
                            "system": "http://loinc.org",
                            "code": "55418-8",
                            "display": "Weight and Height tracking panel"
                        }
                    ],
                    "text": "Weight and Height tracking panel"
                },
                "issued": "2010-07-15",
                "status": "final",
                "reliability": "ok",
                "extension": [
                    {
                        "url": "http://amida.com/fhir/Profile/extensions#observation-type",
                        "valueCoding": {
                            "code": "8716-3",
                            "display": "Vital signs",
                            "system": "http://loinc.org"
                        }
                    }
                ],
                "related": [
                    {
                        "type": "has-component",
                        "target": {
                            "reference": "Observation/b9315378-7604-4be4-817c-4ca3e2856248"
                        }
                    }
                ]
            }
        },
        {
            "id": "Observation/7abedc2c-fa2d-45fa-97cb-5f7479ba2bd6",
            "content": {
                "resourceType": "Observation",
                "name": {
                    "coding": [
                        {
                            "system": "http://loinc.org",
                            "code": "35094-2",
                            "display": "Blood pressure panel"
                        }
                    ],
                    "text": "Blood pressure panel"
                },
                "issued": "2010-04-02",
                "status": "final",
                "reliability": "ok",
                "extension": [
                    {
                        "url": "http://amida.com/fhir/Profile/extensions#observation-type",
                        "valueCoding": {
                            "code": "8716-3",
                            "display": "Vital signs",
                            "system": "http://loinc.org"
                        }
                    }
                ],
                "related": [
                    {
                        "type": "has-component",
                        "target": {
                            "reference": "Observation/401cb983-cf98-47d6-b110-676af2f4f860"
                        }
                    },
                    {
                        "type": "has-component",
                        "target": {
                            "reference": "Observation/c15bb50f-cb5d-4fb8-ab37-caf131f0d052"
                        }
                    }
                ]
            }
        },
        {
            "id": "Observation/c2dd7a66-17b1-405c-b8e3-8ac1ddd59fad",
            "content": {
                "resourceType": "Observation",
                "name": {
                    "coding": [
                        {
                            "system": "http://loinc.org",
                            "code": "35094-2",
                            "display": "Blood pressure panel"
                        }
                    ],
                    "text": "Blood pressure panel"
                },
                "issued": "2010-05-20",
                "status": "final",
                "reliability": "ok",
                "extension": [
                    {
                        "url": "http://amida.com/fhir/Profile/extensions#observation-type",
                        "valueCoding": {
                            "code": "8716-3",
                            "display": "Vital signs",
                            "system": "http://loinc.org"
                        }
                    }
                ],
                "related": [
                    {
                        "type": "has-component",
                        "target": {
                            "reference": "Observation/31b144c7-d23b-476b-bc28-9ec41a71c4d9"
                        }
                    },
                    {
                        "type": "has-component",
                        "target": {
                            "reference": "Observation/1879cc59-1ab7-44bc-93a2-55991511e0d1"
                        }
                    }
                ]
            }
        },
        {
            "id": "Observation/abe38834-df14-4dc8-b0f7-f3852a6b892b",
            "content": {
                "resourceType": "Observation",
                "name": {
                    "coding": [
                        {
                            "system": "http://loinc.org",
                            "code": "35094-2",
                            "display": "Blood pressure panel"
                        }
                    ],
                    "text": "Blood pressure panel"
                },
                "issued": "2010-07-15",
                "status": "final",
                "reliability": "ok",
                "extension": [
                    {
                        "url": "http://amida.com/fhir/Profile/extensions#observation-type",
                        "valueCoding": {
                            "code": "8716-3",
                            "display": "Vital signs",
                            "system": "http://loinc.org"
                        }
                    }
                ],
                "related": [
                    {
                        "type": "has-component",
                        "target": {
                            "reference": "Observation/9141f66f-abf6-41d2-b965-1f84869f93d4"
                        }
                    },
                    {
                        "type": "has-component",
                        "target": {
                            "reference": "Observation/dcfdfbef-c3bb-4731-a0d5-586e961af399"
                        }
                    }
                ]
            }
        },
        {
            "id": "Observation/1dcdc03d-8abc-4a74-b484-181295bfec6d",
            "content": {
                "resourceType": "Observation",
                "name": {
                    "coding": [
                        {
                            "system": "http://loinc.org",
                            "code": "35094-2",
                            "display": "Blood pressure panel"
                        }
                    ],
                    "text": "Blood pressure panel"
                },
                "issued": "2010-09-30",
                "status": "final",
                "reliability": "ok",
                "extension": [
                    {
                        "url": "http://amida.com/fhir/Profile/extensions#observation-type",
                        "valueCoding": {
                            "code": "8716-3",
                            "display": "Vital signs",
                            "system": "http://loinc.org"
                        }
                    }
                ],
                "related": [
                    {
                        "type": "has-component",
                        "target": {
                            "reference": "Observation/2deb577b-4478-45f8-9990-584073ecee2d"
                        }
                    },
                    {
                        "type": "has-component",
                        "target": {
                            "reference": "Observation/ed9aa5be-7c60-45a3-9b4e-f469a6a57bb3"
                        }
                    }
                ]
            }
        },
        {
            "id": "Observation/b4ee7a3b-d149-4621-a05d-28a204f67b12",
            "content": {
                "resourceType": "Observation",
                "name": {
                    "coding": [
                        {
                            "system": "http://loinc.org",
                            "code": "35094-2",
                            "display": "Blood pressure panel"
                        }
                    ],
                    "text": "Blood pressure panel"
                },
                "issued": "2010-11-30",
                "status": "final",
                "reliability": "ok",
                "extension": [
                    {
                        "url": "http://amida.com/fhir/Profile/extensions#observation-type",
                        "valueCoding": {
                            "code": "8716-3",
                            "display": "Vital signs",
                            "system": "http://loinc.org"
                        }
                    }
                ],
                "related": [
                    {
                        "type": "has-component",
                        "target": {
                            "reference": "Observation/b559ab58-b44f-4ced-8907-bd372754c5f5"
                        }
                    },
                    {
                        "type": "has-component",
                        "target": {
                            "reference": "Observation/e5b9152a-417b-44c6-8646-22007d92a894"
                        }
                    }
                ]
            }
        },
        {
            "id": "Condition/0cd4adb4-5489-482c-839e-7ea7587780bf",
            "content": {
                "resourceType": "Condition",
                "status": "confirmed",
                "onsetDate": "2010-04-02",
                "dateAsserted": "2010-04-02",
                "code": {
                    "coding": [
                        {
                            "system": "http://snomed.info/sct",
                            "code": "195979001",
                            "display": "Asthma unspecified"
                        }
                    ],
                    "text": "Asthma unspecified"
                }
            }
        },
        {
            "id": "Condition/d63f42a3-3541-42d5-bf72-849f546d715d",
            "content": {
                "resourceType": "Condition",
                "status": "confirmed",
                "onsetDate": "2010-04-02",
                "dateAsserted": "2010-04-02",
                "code": {
                    "coding": [
                        {
                            "system": "http://snomed.info/sct",
                            "code": "370202007",
                            "display": "Asthma causes daytime symptoms 1 to 2 times per month"
                        }
                    ],
                    "text": "Asthma causes daytime symptoms 1 to 2 times per month"
                }
            }
        },
        {
            "id": "Condition/adf66c7d-cf0a-48d7-99e1-6061341c9599",
            "content": {
                "resourceType": "Condition",
                "status": "confirmed",
                "onsetDate": "2010-04-02",
                "dateAsserted": "2010-04-02",
                "code": {
                    "coding": [
                        {
                            "system": "http://snomed.info/sct",
                            "code": "370205009",
                            "display": "Asthma causes night symptoms 1 to 2 times per month"
                        }
                    ],
                    "text": "Asthma causes night symptoms 1 to 2 times per month"
                }
            }
        },
        {
            "id": "Condition/d8766945-7dc4-48e8-8fea-a0e72395c96e",
            "content": {
                "resourceType": "Condition",
                "status": "confirmed",
                "onsetDate": "2010-05-20",
                "dateAsserted": "2010-05-20",
                "code": {
                    "coding": [
                        {
                            "system": "http://snomed.info/sct",
                            "code": "279039007",
                            "display": "Low back pain"
                        }
                    ],
                    "text": "Low back pain"
                }
            }
        },
        {
            "id": "Condition/44b5f100-f2a1-4db8-a84e-6647e81f7815",
            "content": {
                "resourceType": "Condition",
                "status": "confirmed",
                "onsetDate": "2010-07-15",
                "dateAsserted": "2010-07-15",
                "code": {
                    "coding": [
                        {
                            "system": "http://snomed.info/sct",
                            "code": "59621000",
                            "display": "Essential hypertension"
                        }
                    ],
                    "text": "Essential hypertension"
                }
            }
        },
        {
            "id": "Observation/144b71e3-a427-49b2-9274-637ecdcc953e",
            "content": {
                "resourceType": "Observation",
                "name": {
                    "coding": [
                        {
                            "system": "http://loinc.org",
                            "code": "14646-4",
                            "display": "HDLc SerPl-sCnc"
                        }
                    ],
                    "text": "HDLc SerPl-sCnc"
                },
                "valueQuantity": {
                    "value": 55,
                    "units": "mg/dL",
                    "code": "mg/dL",
                    "system": "http://unitsofmeasure.org"
                },
                "issued": "2010-07-15",
                "status": "final",
                "reliability": "ok",
                "extension": [
                    {
                        "url": "http://amida.com/fhir/Profile/extensions#observation-type",
                        "valueCoding": {
                            "code": "11502-2",
                            "display": "Laboratory report",
                            "system": "http://loinc.org"
                        }
                    }
                ],
                "interpretation": {
                    "coding": [
                        {
                            "system": "http://hl7.org/fhir/v2/0078",
                            "code": "N",
                            "display": "Normal"
                        }
                    ],
                    "text": "Normal"
                },
                "referenceRange": [
                    {
                        "meaning": {
                            "coding": [
                                {
                                    "system": "http://hl7.org/fhir/referencerange-meaning",
                                    "code": "normal",
                                    "display": "Normal Range"
                                }
                            ],
                            "text": "Normal Range"
                        },
                        "text": ">=40 mg/dL"
                    }
                ]
            }
        },
        {
            "id": "Observation/a36e5346-8bb0-4860-863b-9b718c6da30d",
            "content": {
                "resourceType": "Observation",
                "name": {
                    "coding": [
                        {
                            "system": "http://loinc.org",
                            "code": "2089-1",
                            "display": "LDLc SerPl-mCnc"
                        }
                    ],
                    "text": "LDLc SerPl-mCnc"
                },
                "valueQuantity": {
                    "value": 132,
                    "units": "mg/dL",
                    "code": "mg/dL",
                    "system": "http://unitsofmeasure.org"
                },
                "issued": "2010-07-15",
                "status": "final",
                "reliability": "ok",
                "extension": [
                    {
                        "url": "http://amida.com/fhir/Profile/extensions#observation-type",
                        "valueCoding": {
                            "code": "11502-2",
                            "display": "Laboratory report",
                            "system": "http://loinc.org"
                        }
                    }
                ],
                "interpretation": {
                    "coding": [
                        {
                            "system": "http://hl7.org/fhir/v2/0078",
                            "code": "N",
                            "display": "Normal"
                        }
                    ],
                    "text": "Normal"
                },
                "referenceRange": [
                    {
                        "meaning": {
                            "coding": [
                                {
                                    "system": "http://hl7.org/fhir/referencerange-meaning",
                                    "code": "normal",
                                    "display": "Normal Range"
                                }
                            ],
                            "text": "Normal Range"
                        },
                        "text": "<130 mg/dL (calc)"
                    }
                ]
            }
        },
        {
            "id": "Observation/57d3a08c-9a35-4493-9227-c3f6ed7047f2",
            "content": {
                "resourceType": "Observation",
                "name": {
                    "coding": [
                        {
                            "system": "http://loinc.org",
                            "code": "2093-3",
                            "display": "Cholest SerPl-mCnc"
                        }
                    ],
                    "text": "Cholest SerPl-mCnc"
                },
                "valueQuantity": {
                    "value": 220,
                    "units": "mg/dL",
                    "code": "mg/dL",
                    "system": "http://unitsofmeasure.org"
                },
                "issued": "2010-07-15",
                "status": "final",
                "reliability": "ok",
                "extension": [
                    {
                        "url": "http://amida.com/fhir/Profile/extensions#observation-type",
                        "valueCoding": {
                            "code": "11502-2",
                            "display": "Laboratory report",
                            "system": "http://loinc.org"
                        }
                    }
                ],
                "interpretation": {
                    "coding": [
                        {
                            "system": "http://hl7.org/fhir/v2/0078",
                            "code": "N",
                            "display": "Normal"
                        }
                    ],
                    "text": "Normal"
                },
                "referenceRange": [
                    {
                        "meaning": {
                            "coding": [
                                {
                                    "system": "http://hl7.org/fhir/referencerange-meaning",
                                    "code": "normal",
                                    "display": "Normal Range"
                                }
                            ],
                            "text": "Normal Range"
                        },
                        "text": "125-200 mg/dL"
                    }
                ]
            }
        },
        {
            "id": "Observation/25f70a4f-ddaf-4fae-8010-6eddf4010992",
            "content": {
                "resourceType": "Observation",
                "name": {
                    "coding": [
                        {
                            "system": "http://loinc.org",
                            "code": "12951-0",
                            "display": "Trigl SerPl Calc-mCnc"
                        }
                    ],
                    "text": "Trigl SerPl Calc-mCnc"
                },
                "valueQuantity": {
                    "value": 165,
                    "units": "mg/dL",
                    "code": "mg/dL",
                    "system": "http://unitsofmeasure.org"
                },
                "issued": "2010-07-15",
                "status": "final",
                "reliability": "ok",
                "extension": [
                    {
                        "url": "http://amida.com/fhir/Profile/extensions#observation-type",
                        "valueCoding": {
                            "code": "11502-2",
                            "display": "Laboratory report",
                            "system": "http://loinc.org"
                        }
                    }
                ],
                "interpretation": {
                    "coding": [
                        {
                            "system": "http://hl7.org/fhir/v2/0078",
                            "code": "N",
                            "display": "Normal"
                        }
                    ],
                    "text": "Normal"
                },
                "referenceRange": [
                    {
                        "meaning": {
                            "coding": [
                                {
                                    "system": "http://hl7.org/fhir/referencerange-meaning",
                                    "code": "normal",
                                    "display": "Normal Range"
                                }
                            ],
                            "text": "Normal Range"
                        },
                        "text": "10-39 years: 55-110 mg/dL | 40-59 years: 70-150 mg/dL | >60 years: 80-150 mg/dL | Therapeutic Target: <100 mg/dL"
                    }
                ]
            }
        },
        {
            "id": "Observation/157b5593-5619-4ba7-b489-0f165311b3b9",
            "content": {
                "resourceType": "Observation",
                "name": {
                    "coding": [
                        {
                            "system": "http://snomed.info/sct",
                            "code": "16254007",
                            "display": "Lipid Panel"
                        }
                    ],
                    "text": "Lipid Panel"
                },
                "status": "final",
                "reliability": "ok",
                "related": [
                    {
                        "type": "has-component",
                        "target": {
                            "reference": "Observation/144b71e3-a427-49b2-9274-637ecdcc953e"
                        }
                    },
                    {
                        "type": "has-component",
                        "target": {
                            "reference": "Observation/a36e5346-8bb0-4860-863b-9b718c6da30d"
                        }
                    },
                    {
                        "type": "has-component",
                        "target": {
                            "reference": "Observation/57d3a08c-9a35-4493-9227-c3f6ed7047f2"
                        }
                    },
                    {
                        "type": "has-component",
                        "target": {
                            "reference": "Observation/25f70a4f-ddaf-4fae-8010-6eddf4010992"
                        }
                    }
                ],
                "extension": [
                    {
                        "url": "http://amida.com/fhir/Profile/extensions#observation-type",
                        "valueCoding": {
                            "code": "11502-2",
                            "display": "Laboratory report",
                            "system": "http://loinc.org"
                        }
                    }
                ]
            }
        },
        {
            "id": "MedicationPrescription/6db5b1dc-c779-4196-8280-d96929509528",
            "content": {
                "resourceType": "MedicationPrescription",
                "status": "active",
                "dateWritten": "2010-04-02",
                "dosageInstruction": [
                    {
                        "timingPeriod": {
                            "start": "2010-04-02"
                        }
                    }
                ],
                "contained": [
                    {
                        "id": "med",
                        "resourceType": "Medication",
                        "name": "Albuterol 0.83 MG/ML Inhalant Solution",
                        "code": {
                            "coding": [
                                {
                                    "system": "http://www.nlm.nih.gov/research/umls/rxnorm",
                                    "code": "630208",
                                    "display": "Albuterol 0.83 MG/ML Inhalant Solution"
                                }
                            ],
                            "text": "Albuterol 0.83 MG/ML Inhalant Solution"
                        }
                    }
                ],
                "medication": {
                    "reference": "#med",
                    "display": "Albuterol 0.83 MG/ML Inhalant Solution"
                }
            }
        },
        {
            "id": "MedicationAdministration/03ef5631-93ec-4c9e-849b-2653fd75a87a",
            "content": {
                "resourceType": "MedicationAdministration",
                "status": "completed",
                "practitioner": {
                    "reference": "Practitioner/unknown",
                    "display": "Unknown"
                },
                "whenGiven": {
                    "start": "2010-04-02"
                },
                "dosage": [
                    {
                        "timingPeriod": {
                            "start": "2010-04-02"
                        }
                    }
                ],
                "prescription": {
                    "reference": "MedicationPrescription/6db5b1dc-c779-4196-8280-d96929509528"
                },
                "contained": [
                    {
                        "id": "med",
                        "resourceType": "Medication",
                        "name": "Albuterol 0.83 MG/ML Inhalant Solution",
                        "code": {
                            "coding": [
                                {
                                    "system": "http://www.nlm.nih.gov/research/umls/rxnorm",
                                    "code": "630208",
                                    "display": "Albuterol 0.83 MG/ML Inhalant Solution"
                                }
                            ],
                            "text": "Albuterol 0.83 MG/ML Inhalant Solution"
                        }
                    }
                ],
                "medication": {
                    "reference": "#med",
                    "display": "Albuterol 0.83 MG/ML Inhalant Solution"
                }
            }
        },
        {
            "id": "MedicationPrescription/6f35a41e-12ad-4a23-bb82-24a22068ded1",
            "content": {
                "resourceType": "MedicationPrescription",
                "status": "active",
                "dateWritten": "2010-07-15",
                "dosageInstruction": [
                    {
                        "timingPeriod": {
                            "start": "2010-07-15"
                        }
                    }
                ],
                "contained": [
                    {
                        "id": "med",
                        "resourceType": "Medication",
                        "name": "Enalapril Maleate 10 MG / Hydrochlorothiazide 25 MG Oral Tablet",
                        "code": {
                            "coding": [
                                {
                                    "system": "http://www.nlm.nih.gov/research/umls/rxnorm",
                                    "code": "858828",
                                    "display": "Enalapril Maleate 10 MG / Hydrochlorothiazide 25 MG Oral Tablet"
                                }
                            ],
                            "text": "Enalapril Maleate 10 MG / Hydrochlorothiazide 25 MG Oral Tablet"
                        }
                    }
                ],
                "medication": {
                    "reference": "#med",
                    "display": "Enalapril Maleate 10 MG / Hydrochlorothiazide 25 MG Oral Tablet"
                }
            }
        },
        {
            "id": "MedicationAdministration/26d9ce89-3efb-4911-9dfa-5de20444d610",
            "content": {
                "resourceType": "MedicationAdministration",
                "status": "completed",
                "practitioner": {
                    "reference": "Practitioner/unknown",
                    "display": "Unknown"
                },
                "whenGiven": {
                    "start": "2010-07-15"
                },
                "dosage": [
                    {
                        "timingPeriod": {
                            "start": "2010-07-15"
                        }
                    }
                ],
                "prescription": {
                    "reference": "MedicationPrescription/6f35a41e-12ad-4a23-bb82-24a22068ded1"
                },
                "contained": [
                    {
                        "id": "med",
                        "resourceType": "Medication",
                        "name": "Enalapril Maleate 10 MG / Hydrochlorothiazide 25 MG Oral Tablet",
                        "code": {
                            "coding": [
                                {
                                    "system": "http://www.nlm.nih.gov/research/umls/rxnorm",
                                    "code": "858828",
                                    "display": "Enalapril Maleate 10 MG / Hydrochlorothiazide 25 MG Oral Tablet"
                                }
                            ],
                            "text": "Enalapril Maleate 10 MG / Hydrochlorothiazide 25 MG Oral Tablet"
                        }
                    }
                ],
                "medication": {
                    "reference": "#med",
                    "display": "Enalapril Maleate 10 MG / Hydrochlorothiazide 25 MG Oral Tablet"
                }
            }
        }
    ]
}