{
    "resourceType": "Bundle",
    "totalResults": 42,
    "entry": [
        {
            "id": "Patient/some-id-here-1987",
            "content": {
                "resourceType": "Patient",
                "identifier": [
                    {
                        "system": "http://www.midea-tecg.com",
                        "value": "JOE_DOE_IDENTIFIER"
                    }
                ],
                "name": [
                    {
                        "family": [
                            "DOE"
                        ],
                        "given": [
                            "JOE"
                        ]
                    }
                ]
            }
        },
        {
            "id": "AllergyIntolerance/a7ec416a-8469-41ca-a3cc-e15846f6ea00",
            "content": {
                "resourceType": "AllergyIntolerance",
                "criticality": "low",
                "sensitivityType": "allergy",
                "recordedDate": "2010-03-31",
                "status": "confirmed",
                "substance": {
                    "reference": "Substance/2c3e9ab0-d6f1-4b77-8c3c-990357e9d4cf",
                    "display": "Eggs"
                },
                "subject": {
                    "reference": "Patient/some-id-here-1987",
                    "display": "DOE, JOE"
                }
            }
        },
        {
            "id": "AllergyIntolerance/fbf94ff7-c0c9-469a-84cc-8a19e4417a0c",
            "content": {
                "resourceType": "AllergyIntolerance",
                "criticality": "medium",
                "sensitivityType": "allergy",
                "recordedDate": "2010-03-31",
                "status": "confirmed",
                "substance": {
                    "reference": "Substance/ddf26c4f-2b8c-4341-a376-db73d2c39869",
                    "display": "Codeine"
                },
                "subject": {
                    "reference": "Patient/some-id-here-1987",
                    "display": "DOE, JOE"
                }
            }
        },
        {
            "id": "AllergyIntolerance/cd1b9791-fe3d-4f24-91a5-139ef1e66db4",
            "content": {
                "resourceType": "AllergyIntolerance",
                "criticality": "low",
                "sensitivityType": "allergy",
                "recordedDate": "2010-03-31",
                "status": "confirmed",
                "substance": {
                    "reference": "Substance/433c34e7-a329-4f52-9925-464398117fd6",
                    "display": "Fosfomycin 33.3 MG/ML Oral Suspension"
                },
                "subject": {
                    "reference": "Patient/some-id-here-1987",
                    "display": "DOE, JOE"
                }
            }
        },
        {
            "id": "Observation/8bcb1577-b7f7-42e5-ac74-5707f9b93c88",
            "content": {
                "resourceType": "Observation",
                "name": {
                    "coding": [
                        {
                            "system": "http://loinc.org",
                            "code": "8462-4",
                            "display": "BP Diastolic"
                        }
                    ],
                    "text": "BP Diastolic"
                },
                "valueQuantity": {
                    "value": 55,
                    "units": "mm[Hg]",
                    "code": "mm[Hg]",
                    "system": "http://unitsofmeasure.org"
                },
                "issued": "2010-03-31",
                "status": "final",
                "reliability": "ok",
                "extension": [
                    {
                        "url": "http://amida.com/fhir/Profile/extensions#observation-type",
                        "valueCoding": {
                            "code": "8716-3",
                            "display": "Vital signs",
                            "system": "http://loinc.org"
                        }
                    }
                ],
                "subject": {
                    "reference": "Patient/some-id-here-1987",
                    "display": "DOE, JOE"
                }
            }
        },
        {
            "id": "Observation/cb105fab-36e9-4cf9-9fd0-738a90bc16b5",
            "content": {
                "resourceType": "Observation",
                "name": {
                    "coding": [
                        {
                            "system": "http://loinc.org",
                            "code": "8480-6",
                            "display": "BP Systolic"
                        }
                    ],
                    "text": "BP Systolic"
                },
                "valueQuantity": {
                    "value": 96,
                    "units": "mm[Hg]",
                    "code": "mm[Hg]",
                    "system": "http://unitsofmeasure.org"
                },
                "issued": "2010-03-31",
                "status": "final",
                "reliability": "ok",
                "extension": [
                    {
                        "url": "http://amida.com/fhir/Profile/extensions#observation-type",
                        "valueCoding": {
                            "code": "8716-3",
                            "display": "Vital signs",
                            "system": "http://loinc.org"
                        }
                    }
                ],
                "subject": {
                    "reference": "Patient/some-id-here-1987",
                    "display": "DOE, JOE"
                }
            }
        },
        {
            "id": "Observation/7542413c-ed6a-4eeb-b210-bbfb53f5a331",
            "content": {
                "resourceType": "Observation",
                "name": {
                    "coding": [
                        {
                            "system": "http://loinc.org",
                            "code": "39156-5",
                            "display": "BMI"
                        }
                    ],
                    "text": "BMI"
                },
                "valueQuantity": {
                    "value": 16.3,
                    "units": "kg/m2",
                    "code": "kg/m2",
                    "system": "http://unitsofmeasure.org"
                },
                "issued": "2010-05-06",
                "status": "final",
                "reliability": "ok",
                "extension": [
                    {
                        "url": "http://amida.com/fhir/Profile/extensions#observation-type",
                        "valueCoding": {
                            "code": "8716-3",
                            "display": "Vital signs",
                            "system": "http://loinc.org"
                        }
                    }
                ],
                "subject": {
                    "reference": "Patient/some-id-here-1987",
                    "display": "DOE, JOE"
                }
            }
        },
        {
            "id": "Observation/ec89e168-4b92-4607-aaa2-1aaf402a3782",
            "content": {
                "resourceType": "Observation",
                "name": {
                    "coding": [
                        {
                            "system": "http://loinc.org",
                            "code": "8462-4",
                            "display": "BP Diastolic"
                        }
                    ],
                    "text": "BP Diastolic"
                },
                "valueQuantity": {
                    "value": 56,
                    "units": "mm[Hg]",
                    "code": "mm[Hg]",
                    "system": "http://unitsofmeasure.org"
                },
                "issued": "2010-09-07",
                "status": "final",
                "reliability": "ok",
                "extension": [
                    {
                        "url": "http://amida.com/fhir/Profile/extensions#observation-type",
                        "valueCoding": {
                            "code": "8716-3",
                            "display": "Vital signs",
                            "system": "http://loinc.org"
                        }
                    }
                ],
                "subject": {
                    "reference": "Patient/some-id-here-1987",
                    "display": "DOE, JOE"
                }
            }
        },
        {
            "id": "Observation/63f402cd-6815-4578-b5a5-87ab0467ce16",
            "content": {
                "resourceType": "Observation",
                "name": {
                    "coding": [
                        {
                            "system": "http://loinc.org",
                            "code": "8480-6",
                            "display": "BP Systolic"
                        }
                    ],
                    "text": "BP Systolic"
                },
                "valueQuantity": {
                    "value": 98,
                    "units": "mm[Hg]",
                    "code": "mm[Hg]",
                    "system": "http://unitsofmeasure.org"
                },
                "issued": "2010-09-07",
                "status": "final",
                "reliability": "ok",
                "extension": [
                    {
                        "url": "http://amida.com/fhir/Profile/extensions#observation-type",
                        "valueCoding": {
                            "code": "8716-3",
                            "display": "Vital signs",
                            "system": "http://loinc.org"
                        }
                    }
                ],
                "subject": {
                    "reference": "Patient/some-id-here-1987",
                    "display": "DOE, JOE"
                }
            }
        },
        {
            "id": "Observation/41b92dd0-b9b3-40ac-a1af-8a134508a6cb",
            "content": {
                "resourceType": "Observation",
                "name": {
                    "coding": [
                        {
                            "system": "http://loinc.org",
                            "code": "39156-5",
                            "display": "BMI"
                        }
                    ],
                    "text": "BMI"
                },
                "valueQuantity": {
                    "value": 16.9,
                    "units": "kg/m2",
                    "code": "kg/m2",
                    "system": "http://unitsofmeasure.org"
                },
                "issued": "2010-12-03",
                "status": "final",
                "reliability": "ok",
                "extension": [
                    {
                        "url": "http://amida.com/fhir/Profile/extensions#observation-type",
                        "valueCoding": {
                            "code": "8716-3",
                            "display": "Vital signs",
                            "system": "http://loinc.org"
                        }
                    }
                ],
                "subject": {
                    "reference": "Patient/some-id-here-1987",
                    "display": "DOE, JOE"
                }
            }
        },
        {
            "id": "Observation/13066ec3-027a-4df7-9912-912e8823c2df",
            "content": {
                "resourceType": "Observation",
                "name": {
                    "coding": [
                        {
                            "system": "http://loinc.org",
                            "code": "35094-2",
                            "display": "Blood pressure panel"
                        }
                    ],
                    "text": "Blood pressure panel"
                },
                "issued": "2010-03-31",
                "status": "final",
                "reliability": "ok",
                "extension": [
                    {
                        "url": "http://amida.com/fhir/Profile/extensions#observation-type",
                        "valueCoding": {
                            "code": "8716-3",
                            "display": "Vital signs",
                            "system": "http://loinc.org"
                        }
                    }
                ],
                "related": [
                    {
                        "type": "has-component",
                        "target": {
                            "reference": "Observation/8bcb1577-b7f7-42e5-ac74-5707f9b93c88"
                        }
                    },
                    {
                        "type": "has-component",
                        "target": {
                            "reference": "Observation/cb105fab-36e9-4cf9-9fd0-738a90bc16b5"
                        }
                    }
                ],
                "subject": {
                    "reference": "Patient/some-id-here-1987",
                    "display": "DOE, JOE"
                }
            }
        },
        {
            "id": "Observation/6674453c-8aa1-4902-8323-46489bc1368d",
            "content": {
                "resourceType": "Observation",
                "name": {
                    "coding": [
                        {
                            "system": "http://loinc.org",
                            "code": "35094-2",
                            "display": "Blood pressure panel"
                        }
                    ],
                    "text": "Blood pressure panel"
                },
                "issued": "2010-09-07",
                "status": "final",
                "reliability": "ok",
                "extension": [
                    {
                        "url": "http://amida.com/fhir/Profile/extensions#observation-type",
                        "valueCoding": {
                            "code": "8716-3",
                            "display": "Vital signs",
                            "system": "http://loinc.org"
                        }
                    }
                ],
                "related": [
                    {
                        "type": "has-component",
                        "target": {
                            "reference": "Observation/ec89e168-4b92-4607-aaa2-1aaf402a3782"
                        }
                    },
                    {
                        "type": "has-component",
                        "target": {
                            "reference": "Observation/63f402cd-6815-4578-b5a5-87ab0467ce16"
                        }
                    }
                ],
                "subject": {
                    "reference": "Patient/some-id-here-1987",
                    "display": "DOE, JOE"
                }
            }
        },
        {
            "id": "Observation/df06d924-dabd-4752-8ac2-eccf727b4e93",
            "content": {
                "resourceType": "Observation",
                "name": {
                    "coding": [
                        {
                            "system": "http://loinc.org",
                            "code": "55418-8",
                            "display": "Weight and Height tracking panel"
                        }
                    ],
                    "text": "Weight and Height tracking panel"
                },
                "issued": "2010-05-06",
                "status": "final",
                "reliability": "ok",
                "extension": [
                    {
                        "url": "http://amida.com/fhir/Profile/extensions#observation-type",
                        "valueCoding": {
                            "code": "8716-3",
                            "display": "Vital signs",
                            "system": "http://loinc.org"
                        }
                    }
                ],
                "related": [
                    {
                        "type": "has-component",
                        "target": {
                            "reference": "Observation/7542413c-ed6a-4eeb-b210-bbfb53f5a331"
                        }
                    }
                ],
                "subject": {
                    "reference": "Patient/some-id-here-1987",
                    "display": "DOE, JOE"
                }
            }
        },
        {
            "id": "Observation/40a64083-dd29-44cf-9375-853fc20af5fe",
            "content": {
                "resourceType": "Observation",
                "name": {
                    "coding": [
                        {
                            "system": "http://loinc.org",
                            "code": "55418-8",
                            "display": "Weight and Height tracking panel"
                        }
                    ],
                    "text": "Weight and Height tracking panel"
                },
                "issued": "2010-12-03",
                "status": "final",
                "reliability": "ok",
                "extension": [
                    {
                        "url": "http://amida.com/fhir/Profile/extensions#observation-type",
                        "valueCoding": {
                            "code": "8716-3",
                            "display": "Vital signs",
                            "system": "http://loinc.org"
                        }
                    }
                ],
                "related": [
                    {
                        "type": "has-component",
                        "target": {
                            "reference": "Observation/41b92dd0-b9b3-40ac-a1af-8a134508a6cb"
                        }
                    }
                ],
                "subject": {
                    "reference": "Patient/some-id-here-1987",
                    "display": "DOE, JOE"
                }
            }
        },
        {
            "id": "Condition/cd009346-4b5f-45b4-b7c6-443f364edd42",
            "content": {
                "resourceType": "Condition",
                "status": "confirmed",
                "onsetDate": "2010-03-31",
                "dateAsserted": "2010-03-31",
                "code": {
                    "coding": [
                        {
                            "system": "http://snomed.info/sct",
                            "code": "195979001",
                            "display": "Asthma unspecified"
                        }
                    ],
                    "text": "Asthma unspecified"
                },
                "subject": {
                    "reference": "Patient/some-id-here-1987",
                    "display": "DOE, JOE"
                }
            }
        },
        {
            "id": "Condition/43632e0b-0c92-4ebc-aa5e-3c3e5ce03297",
            "content": {
                "resourceType": "Condition",
                "status": "confirmed",
                "onsetDate": "2010-03-31",
                "dateAsserted": "2010-03-31",
                "code": {
                    "coding": [
                        {
                            "system": "http://snomed.info/sct",
                            "code": "370202007",
                            "display": "Asthma causes daytime symptoms 1 to 2 times per month"
                        }
                    ],
                    "text": "Asthma causes daytime symptoms 1 to 2 times per month"
                },
                "subject": {
                    "reference": "Patient/some-id-here-1987",
                    "display": "DOE, JOE"
                }
            }
        },
        {
            "id": "Condition/72234fc3-adb6-4540-a8d9-57a05a5423f7",
            "content": {
                "resourceType": "Condition",
                "status": "confirmed",
                "onsetDate": "2010-03-31",
                "dateAsserted": "2010-03-31",
                "code": {
                    "coding": [
                        {
                            "system": "http://snomed.info/sct",
                            "code": "370205009",
                            "display": "Asthma causes night symptoms 1 to 2 times per month"
                        }
                    ],
                    "text": "Asthma causes night symptoms 1 to 2 times per month"
                },
                "subject": {
                    "reference": "Patient/some-id-here-1987",
                    "display": "DOE, JOE"
                }
            }
        },
        {
            "id": "Condition/84538daa-eb86-4a75-80f5-d83b67b54703",
            "content": {
                "resourceType": "Condition",
                "status": "confirmed",
                "onsetDate": "2010-09-07",
                "dateAsserted": "2010-09-07",
                "code": {
                    "coding": [
                        {
                            "system": "http://snomed.info/sct",
                            "code": "370202007",
                            "display": "Asthma causes daytime symptoms 1 to 2 times per month"
                        }
                    ],
                    "text": "Asthma causes daytime symptoms 1 to 2 times per month"
                },
                "subject": {
                    "reference": "Patient/some-id-here-1987",
                    "display": "DOE, JOE"
                }
            }
        },
        {
            "id": "Condition/dba2a507-1c66-4e5d-b461-87bf4816858b",
            "content": {
                "resourceType": "Condition",
                "status": "confirmed",
                "onsetDate": "2010-09-07",
                "dateAsserted": "2010-09-07",
                "code": {
                    "coding": [
                        {
                            "system": "http://snomed.info/sct",
                            "code": "370205009",
                            "display": "Asthma causes night symptoms 1 to 2 times per month"
                        }
                    ],
                    "text": "Asthma causes night symptoms 1 to 2 times per month"
                },
                "subject": {
                    "reference": "Patient/some-id-here-1987",
                    "display": "DOE, JOE"
                }
            }
        },
        {
            "id": "Condition/b099434e-f379-484d-a803-a9474d748882",
            "content": {
                "resourceType": "Condition",
                "status": "confirmed",
                "onsetDate": "2010-11-07",
                "dateAsserted": "2010-11-07",
                "code": {
                    "coding": [
                        {
                            "system": "http://snomed.info/sct",
                            "code": "427295004",
                            "display": "Moderate persistent asthma"
                        }
                    ],
                    "text": "Moderate persistent asthma"
                },
                "subject": {
                    "reference": "Patient/some-id-here-1987",
                    "display": "DOE, JOE"
                }
            }
        },
        {
            "id": "Condition/5485af14-f32f-4d7b-bb09-2b3d1a87b654",
            "content": {
                "resourceType": "Condition",
                "status": "confirmed",
                "onsetDate": "2010-12-03",
                "dateAsserted": "2010-12-03",
                "code": {
                    "coding": [
                        {
                            "system": "http://snomed.info/sct",
                            "code": "363746003",
                            "display": "Acute pharyngitis"
                        }
                    ],
                    "text": "Acute pharyngitis"
                },
                "subject": {
                    "reference": "Patient/some-id-here-1987",
                    "display": "DOE, JOE"
                }
            }
        },
        {
            "id": "Observation/55de6f1e-b473-45c1-b085-fbf6cf1412c0",
            "content": {
                "resourceType": "Observation",
                "name": {
                    "coding": [
                        {
                            "system": "http://loinc.org",
                            "code": "31971-5",
                            "display": "S pyo Ag XXX Ql"
                        }
                    ],
                    "text": "S pyo Ag XXX Ql"
                },
                "issued": "2010-12-03",
                "status": "final",
                "reliability": "ok",
                "extension": [
                    {
                        "url": "http://amida.com/fhir/Profile/extensions#observation-type",
                        "valueCoding": {
                            "code": "11502-2",
                            "display": "Laboratory report",
                            "system": "http://loinc.org"
                        }
                    }
                ],
                "interpretation": {
                    "coding": [
                        {
                            "system": "http://hl7.org/fhir/v2/0078",
                            "code": "N",
                            "display": "Normal"
                        }
                    ],
                    "text": "Normal"
                },
                "referenceRange": [
                    {
                        "meaning": {
                            "coding": [
                                {
                                    "system": "http://hl7.org/fhir/referencerange-meaning",
                                    "code": "normal",
                                    "display": "Normal Range"
                                }
                            ],
                            "text": "Normal Range"
                        },
                        "text": "NA"
                    }
                ],
                "subject": {
                    "reference": "Patient/some-id-here-1987",
                    "display": "DOE, JOE"
                }
            }
        },
        {
            "id": "Observation/c902ec0a-6f3b-42ef-8dda-adfc50037641",
            "content": {
                "resourceType": "Observation",
                "name": {
                    "coding": [
                        {
                            "system": "http://snomed.info/sct",
                            "code": "269934003",
                            "display": "Microbiology"
                        }
                    ],
                    "text": "Microbiology"
                },
                "status": "final",
                "reliability": "ok",
                "related": [
                    {
                        "type": "has-component",
                        "target": {
                            "reference": "Observation/55de6f1e-b473-45c1-b085-fbf6cf1412c0"
                        }
                    }
                ],
                "extension": [
                    {
                        "url": "http://amida.com/fhir/Profile/extensions#observation-type",
                        "valueCoding": {
                            "code": "11502-2",
                            "display": "Laboratory report",
                            "system": "http://loinc.org"
                        }
                    }
                ],
                "subject": {
                    "reference": "Patient/some-id-here-1987",
                    "display": "DOE, JOE"
                }
            }
        },
        {
            "id": "MedicationPrescription/590c021c-833e-4080-a622-3be6cedb6bd9",
            "content": {
                "resourceType": "MedicationPrescription",
                "status": "active",
                "dateWritten": "2010-03-31",
                "dosageInstruction": [
                    {
                        "timingPeriod": {
                            "start": "2010-03-31"
                        }
                    }
                ],
                "medication": {
                    "reference": "Medication/b18c2143-d4fa-4486-91f0-79cb9d4a3d1f",
                    "display": "salmeterol 0.05 MG/ACTUAT Inhalant Powder"
                },
                "patient": {
                    "reference": "Patient/some-id-here-1987",
                    "display": "DOE, JOE"
                }
            }
        },
        {
            "id": "MedicationAdministration/9b6ccc75-5362-44f8-8f01-9d4ec44ccddc",
            "content": {
                "resourceType": "MedicationAdministration",
                "status": "completed",
                "practitioner": {
                    "reference": "Practitioner/unknown",
                    "display": "Unknown"
                },
                "whenGiven": {
                    "start": "2010-03-31"
                },
                "dosage": [
                    {
                        "timingPeriod": {
                            "start": "2010-03-31"
                        }
                    }
                ],
                "prescription": {
                    "reference": "MedicationPrescription/590c021c-833e-4080-a622-3be6cedb6bd9"
                },
                "medication": {
                    "reference": "Medication/a6054259-6163-44ee-ad5e-97f59e0c39d1",
                    "display": "salmeterol 0.05 MG/ACTUAT Inhalant Powder"
                },
                "patient": {
                    "reference": "Patient/some-id-here-1987",
                    "display": "DOE, JOE"
                }
            }
        },
        {
            "id": "MedicationPrescription/c3ef8eaf-9705-4988-951e-c309de4d6a4d",
            "content": {
                "resourceType": "MedicationPrescription",
                "status": "active",
                "dateWritten": "2010-03-31",
                "dosageInstruction": [
                    {
                        "timingPeriod": {
                            "start": "2010-03-31"
                        }
                    }
                ],
                "medication": {
                    "reference": "Medication/224a022f-5ffb-4f1b-88b3-891bd4ca7f75",
                    "display": "Albuterol 0.83 MG/ML Inhalant Solution"
                },
                "patient": {
                    "reference": "Patient/some-id-here-1987",
                    "display": "DOE, JOE"
                }
            }
        },
        {
            "id": "MedicationAdministration/c0afd83c-8c9b-46fa-90af-0fb6ced97f14",
            "content": {
                "resourceType": "MedicationAdministration",
                "status": "completed",
                "practitioner": {
                    "reference": "Practitioner/unknown",
                    "display": "Unknown"
                },
                "whenGiven": {
                    "start": "2010-03-31"
                },
                "dosage": [
                    {
                        "timingPeriod": {
                            "start": "2010-03-31"
                        }
                    }
                ],
                "prescription": {
                    "reference": "MedicationPrescription/c3ef8eaf-9705-4988-951e-c309de4d6a4d"
                },
                "medication": {
                    "reference": "Medication/5e160df7-f83e-4dc1-a58c-667932e3dbb0",
                    "display": "Albuterol 0.83 MG/ML Inhalant Solution"
                },
                "patient": {
                    "reference": "Patient/some-id-here-1987",
                    "display": "DOE, JOE"
                }
            }
        },
        {
            "id": "MedicationPrescription/b2062194-5ad3-4bc7-b113-061e9dd2e6d6",
            "content": {
                "resourceType": "MedicationPrescription",
                "status": "active",
                "dateWritten": "2010-11-07",
                "dosageInstruction": [
                    {
                        "timingPeriod": {
                            "start": "2010-11-07"
                        }
                    }
                ],
                "medication": {
                    "reference": "Medication/f242fd4f-6b55-4bdc-9b66-29641cf465af",
                    "display": "Cromolyn Sodium 20 MG/ML Nasal Solution"
                },
                "patient": {
                    "reference": "Patient/some-id-here-1987",
                    "display": "DOE, JOE"
                }
            }
        },
        {
            "id": "MedicationAdministration/30ee561f-76e0-4744-a812-0a2a6c816391",
            "content": {
                "resourceType": "MedicationAdministration",
                "status": "completed",
                "practitioner": {
                    "reference": "Practitioner/unknown",
                    "display": "Unknown"
                },
                "whenGiven": {
                    "start": "2010-11-07"
                },
                "dosage": [
                    {
                        "timingPeriod": {
                            "start": "2010-11-07"
                        }
                    }
                ],
                "prescription": {
                    "reference": "MedicationPrescription/b2062194-5ad3-4bc7-b113-061e9dd2e6d6"
                },
                "medication": {
                    "reference": "Medication/b6e121a9-0b91-4f94-bb88-6ea89f3a2aeb",
                    "display": "Cromolyn Sodium 20 MG/ML Nasal Solution"
                },
                "patient": {
                    "reference": "Patient/some-id-here-1987",
                    "display": "DOE, JOE"
                }
            }
        },
        {
            "id": "MedicationPrescription/bdfc1782-72f2-4b19-9fd7-02e07af4c8df",
            "content": {
                "resourceType": "MedicationPrescription",
                "status": "active",
                "dateWritten": "2010-12-03",
                "dosageInstruction": [
                    {
                        "timingPeriod": {
                            "start": "2010-12-03"
                        }
                    }
                ],
                "medication": {
                    "reference": "Medication/3e643824-9942-4d53-8121-b77daffb2788",
                    "display": "cefpodoxime 200 MG Oral Tablet"
                },
                "patient": {
                    "reference": "Patient/some-id-here-1987",
                    "display": "DOE, JOE"
                }
            }
        },
        {
            "id": "MedicationAdministration/4d67a7f9-0191-4f29-ae43-eb324418fee2",
            "content": {
                "resourceType": "MedicationAdministration",
                "status": "completed",
                "practitioner": {
                    "reference": "Practitioner/unknown",
                    "display": "Unknown"
                },
                "whenGiven": {
                    "start": "2010-12-03"
                },
                "dosage": [
                    {
                        "timingPeriod": {
                            "start": "2010-12-03"
                        }
                    }
                ],
                "prescription": {
                    "reference": "MedicationPrescription/bdfc1782-72f2-4b19-9fd7-02e07af4c8df"
                },
                "medication": {
                    "reference": "Medication/c761fdf8-9858-425a-b595-2cb91dc5a308",
                    "display": "cefpodoxime 200 MG Oral Tablet"
                },
                "patient": {
                    "reference": "Patient/some-id-here-1987",
                    "display": "DOE, JOE"
                }
            }
        },
        {
            "id": "Substance/2c3e9ab0-d6f1-4b77-8c3c-990357e9d4cf",
            "content": {
                "resourceType": "Substance",
                "type": {
                    "coding": [
                        {
                            "system": "http://fdasis.nlm.nih.gov",
                            "code": "291P45F896",
                            "display": "Eggs"
                        }
                    ],
                    "text": "Eggs"
                }
            }
        },
        {
            "id": "Substance/ddf26c4f-2b8c-4341-a376-db73d2c39869",
            "content": {
                "resourceType": "Substance",
                "type": {
                    "coding": [
                        {
                            "code": "N0000006691",
                            "display": "Codeine"
                        }
                    ],
                    "text": "Codeine"
                }
            }
        },
        {
            "id": "Substance/433c34e7-a329-4f52-9925-464398117fd6",
            "content": {
                "resourceType": "Substance",
                "type": {
                    "coding": [
                        {
                            "system": "http://www.nlm.nih.gov/research/umls/rxnorm",
                            "code": "808917",
                            "display": "Fosfomycin 33.3 MG/ML Oral Suspension"
                        }
                    ],
                    "text": "Fosfomycin 33.3 MG/ML Oral Suspension"
                }
            }
        },
        {
            "id": "Medication/b18c2143-d4fa-4486-91f0-79cb9d4a3d1f",
            "content": {
                "resourceType": "Medication",
                "name": "salmeterol 0.05 MG/ACTUAT Inhalant Powder",
                "code": {
                    "coding": [
                        {
                            "system": "http://www.nlm.nih.gov/research/umls/rxnorm",
                            "code": "318142",
                            "display": "salmeterol 0.05 MG/ACTUAT Inhalant Powder"
                        }
                    ],
                    "text": "salmeterol 0.05 MG/ACTUAT Inhalant Powder"
                }
            }
        },
        {
            "id": "Medication/a6054259-6163-44ee-ad5e-97f59e0c39d1",
            "content": {
                "resourceType": "Medication",
                "name": "salmeterol 0.05 MG/ACTUAT Inhalant Powder",
                "code": {
                    "coding": [
                        {
                            "system": "http://www.nlm.nih.gov/research/umls/rxnorm",
                            "code": "318142",
                            "display": "salmeterol 0.05 MG/ACTUAT Inhalant Powder"
                        }
                    ],
                    "text": "salmeterol 0.05 MG/ACTUAT Inhalant Powder"
                }
            }
        },
        {
            "id": "Medication/224a022f-5ffb-4f1b-88b3-891bd4ca7f75",
            "content": {
                "resourceType": "Medication",
                "name": "Albuterol 0.83 MG/ML Inhalant Solution",
                "code": {
                    "coding": [
                        {
                            "system": "http://www.nlm.nih.gov/research/umls/rxnorm",
                            "code": "630208",
                            "display": "Albuterol 0.83 MG/ML Inhalant Solution"
                        }
                    ],
                    "text": "Albuterol 0.83 MG/ML Inhalant Solution"
                }
            }
        },
        {
            "id": "Medication/5e160df7-f83e-4dc1-a58c-667932e3dbb0",
            "content": {
                "resourceType": "Medication",
                "name": "Albuterol 0.83 MG/ML Inhalant Solution",
                "code": {
                    "coding": [
                        {
                            "system": "http://www.nlm.nih.gov/research/umls/rxnorm",
                            "code": "630208",
                            "display": "Albuterol 0.83 MG/ML Inhalant Solution"
                        }
                    ],
                    "text": "Albuterol 0.83 MG/ML Inhalant Solution"
                }
            }
        },
        {
            "id": "Medication/f242fd4f-6b55-4bdc-9b66-29641cf465af",
            "content": {
                "resourceType": "Medication",
                "name": "Cromolyn Sodium 20 MG/ML Nasal Solution",
                "code": {
                    "coding": [
                        {
                            "system": "http://www.nlm.nih.gov/research/umls/rxnorm",
                            "code": "831303",
                            "display": "Cromolyn Sodium 20 MG/ML Nasal Solution"
                        }
                    ],
                    "text": "Cromolyn Sodium 20 MG/ML Nasal Solution"
                }
            }
        },
        {
            "id": "Medication/b6e121a9-0b91-4f94-bb88-6ea89f3a2aeb",
            "content": {
                "resourceType": "Medication",
                "name": "Cromolyn Sodium 20 MG/ML Nasal Solution",
                "code": {
                    "coding": [
                        {
                            "system": "http://www.nlm.nih.gov/research/umls/rxnorm",
                            "code": "831303",
                            "display": "Cromolyn Sodium 20 MG/ML Nasal Solution"
                        }
                    ],
                    "text": "Cromolyn Sodium 20 MG/ML Nasal Solution"
                }
            }
        },
        {
            "id": "Medication/3e643824-9942-4d53-8121-b77daffb2788",
            "content": {
                "resourceType": "Medication",
                "name": "cefpodoxime 200 MG Oral Tablet",
                "code": {
                    "coding": [
                        {
                            "system": "http://www.nlm.nih.gov/research/umls/rxnorm",
                            "code": "309078",
                            "display": "cefpodoxime 200 MG Oral Tablet"
                        }
                    ],
                    "text": "cefpodoxime 200 MG Oral Tablet"
                }
            }
        },
        {
            "id": "Medication/c761fdf8-9858-425a-b595-2cb91dc5a308",
            "content": {
                "resourceType": "Medication",
                "name": "cefpodoxime 200 MG Oral Tablet",
                "code": {
                    "coding": [
                        {
                            "system": "http://www.nlm.nih.gov/research/umls/rxnorm",
                            "code": "309078",
                            "display": "cefpodoxime 200 MG Oral Tablet"
                        }
                    ],
                    "text": "cefpodoxime 200 MG Oral Tablet"
                }
            }
        }
    ]
}