{
    "resourceType": "Bundle",
    "totalResults": 43,
    "entry": [
        {
            "id": "Patient/some-id-here-1987",
            "content": {
                "resourceType": "Patient",
                "identifier": [
                    {
                        "system": "http://www.midea-tecg.com",
                        "value": "JOE_DOE_IDENTIFIER"
                    }
                ],
                "name": [
                    {
                        "family": [
                            "DOE"
                        ],
                        "given": [
                            "JOE"
                        ]
                    }
                ]
            }
        },
        {
            "id": "AllergyIntolerance/f0534451-6c20-497b-8b57-d8228172d28b",
            "content": {
                "resourceType": "AllergyIntolerance",
                "criticality": "fatal",
                "sensitivityType": "allergy",
                "recordedDate": "2010-04-02",
                "status": "confirmed",
                "substance": {
                    "reference": "Substance/320af592-7316-43d3-85cf-214a0572cd02",
                    "display": "Eggs"
                },
                "subject": {
                    "reference": "Patient/some-id-here-1987",
                    "display": "DOE, JOE"
                }
            }
        },
        {
            "id": "AllergyIntolerance/b3cd8a2c-808b-4de8-896b-68c7e2397c58",
            "content": {
                "resourceType": "AllergyIntolerance",
                "criticality": "medium",
                "sensitivityType": "allergy",
                "recordedDate": "2010-04-02",
                "status": "confirmed",
                "substance": {
                    "reference": "Substance/d5085cff-944b-4a7a-bef0-a331d0e24d97",
                    "display": "Amikacin Sulfate 50 MG/ML Injectable Solution"
                },
                "subject": {
                    "reference": "Patient/some-id-here-1987",
                    "display": "DOE, JOE"
                }
            }
        },
        {
            "id": "AllergyIntolerance/2af81142-61d5-4cef-b7f4-aee72d6de9fe",
            "content": {
                "resourceType": "AllergyIntolerance",
                "criticality": "fatal",
                "sensitivityType": "allergy",
                "recordedDate": "2010-04-02",
                "status": "confirmed",
                "substance": {
                    "reference": "Substance/27ebb878-d7fe-42c1-864e-31b2b7a4d642",
                    "display": "Doxycycline 75 MG Enteric Coated Tablet"
                },
                "subject": {
                    "reference": "Patient/some-id-here-1987",
                    "display": "DOE, JOE"
                }
            }
        },
        {
            "id": "Observation/62a97d89-d985-4a9c-998d-6f68029533ff",
            "content": {
                "resourceType": "Observation",
                "name": {
                    "coding": [
                        {
                            "system": "http://loinc.org",
                            "code": "39156-5",
                            "display": "BMI"
                        }
                    ],
                    "text": "BMI"
                },
                "valueQuantity": {
                    "value": 30.7,
                    "units": "kg/m2",
                    "code": "kg/m2",
                    "system": "http://unitsofmeasure.org"
                },
                "issued": "2010-04-02",
                "status": "final",
                "reliability": "ok",
                "extension": [
                    {
                        "url": "http://amida.com/fhir/Profile/extensions#observation-type",
                        "valueCoding": {
                            "code": "8716-3",
                            "display": "Vital signs",
                            "system": "http://loinc.org"
                        }
                    }
                ],
                "subject": {
                    "reference": "Patient/some-id-here-1987",
                    "display": "DOE, JOE"
                }
            }
        },
        {
            "id": "Observation/6790ccb2-99e1-4c33-900d-2b7ef8103454",
            "content": {
                "resourceType": "Observation",
                "name": {
                    "coding": [
                        {
                            "system": "http://loinc.org",
                            "code": "39156-5",
                            "display": "BMI"
                        }
                    ],
                    "text": "BMI"
                },
                "valueQuantity": {
                    "value": 30,
                    "units": "kg/m2",
                    "code": "kg/m2",
                    "system": "http://unitsofmeasure.org"
                },
                "issued": "2010-07-15",
                "status": "final",
                "reliability": "ok",
                "extension": [
                    {
                        "url": "http://amida.com/fhir/Profile/extensions#observation-type",
                        "valueCoding": {
                            "code": "8716-3",
                            "display": "Vital signs",
                            "system": "http://loinc.org"
                        }
                    }
                ],
                "subject": {
                    "reference": "Patient/some-id-here-1987",
                    "display": "DOE, JOE"
                }
            }
        },
        {
            "id": "Observation/47a9b87d-f2c9-438c-99f7-9761ec693bec",
            "content": {
                "resourceType": "Observation",
                "name": {
                    "coding": [
                        {
                            "system": "http://loinc.org",
                            "code": "8462-4",
                            "display": "BP Diastolic"
                        }
                    ],
                    "text": "BP Diastolic"
                },
                "valueQuantity": {
                    "value": 80,
                    "units": "mm[Hg]",
                    "code": "mm[Hg]",
                    "system": "http://unitsofmeasure.org"
                },
                "issued": "2010-07-15",
                "status": "final",
                "reliability": "ok",
                "extension": [
                    {
                        "url": "http://amida.com/fhir/Profile/extensions#observation-type",
                        "valueCoding": {
                            "code": "8716-3",
                            "display": "Vital signs",
                            "system": "http://loinc.org"
                        }
                    }
                ],
                "subject": {
                    "reference": "Patient/some-id-here-1987",
                    "display": "DOE, JOE"
                }
            }
        },
        {
            "id": "Observation/d5edc091-d1eb-4b06-a2ce-7fae84b7c46d",
            "content": {
                "resourceType": "Observation",
                "name": {
                    "coding": [
                        {
                            "system": "http://loinc.org",
                            "code": "8867-4",
                            "display": "Heart Rate"
                        }
                    ],
                    "text": "Heart Rate"
                },
                "valueQuantity": {
                    "value": 88,
                    "units": "/min",
                    "code": "/min",
                    "system": "http://unitsofmeasure.org"
                },
                "issued": "2010-07-15",
                "status": "final",
                "reliability": "ok",
                "extension": [
                    {
                        "url": "http://amida.com/fhir/Profile/extensions#observation-type",
                        "valueCoding": {
                            "code": "8716-3",
                            "display": "Vital signs",
                            "system": "http://loinc.org"
                        }
                    }
                ],
                "subject": {
                    "reference": "Patient/some-id-here-1987",
                    "display": "DOE, JOE"
                }
            }
        },
        {
            "id": "Observation/f849a056-892f-4dcc-9054-d972556c2c41",
            "content": {
                "resourceType": "Observation",
                "name": {
                    "coding": [
                        {
                            "system": "http://loinc.org",
                            "code": "8480-6",
                            "display": "BP Systolic"
                        }
                    ],
                    "text": "BP Systolic"
                },
                "valueQuantity": {
                    "value": 132,
                    "units": "mm[Hg]",
                    "code": "mm[Hg]",
                    "system": "http://unitsofmeasure.org"
                },
                "issued": "2010-07-15",
                "status": "final",
                "reliability": "ok",
                "extension": [
                    {
                        "url": "http://amida.com/fhir/Profile/extensions#observation-type",
                        "valueCoding": {
                            "code": "8716-3",
                            "display": "Vital signs",
                            "system": "http://loinc.org"
                        }
                    }
                ],
                "subject": {
                    "reference": "Patient/some-id-here-1987",
                    "display": "DOE, JOE"
                }
            }
        },
        {
            "id": "Observation/9aac1527-b6b7-4bc6-8f92-71b45446fe01",
            "content": {
                "resourceType": "Observation",
                "name": {
                    "coding": [
                        {
                            "system": "http://loinc.org",
                            "code": "39156-5",
                            "display": "BMI"
                        }
                    ],
                    "text": "BMI"
                },
                "valueQuantity": {
                    "value": 29.7,
                    "units": "kg/m2",
                    "code": "kg/m2",
                    "system": "http://unitsofmeasure.org"
                },
                "issued": "2010-07-28",
                "status": "final",
                "reliability": "ok",
                "extension": [
                    {
                        "url": "http://amida.com/fhir/Profile/extensions#observation-type",
                        "valueCoding": {
                            "code": "8716-3",
                            "display": "Vital signs",
                            "system": "http://loinc.org"
                        }
                    }
                ],
                "subject": {
                    "reference": "Patient/some-id-here-1987",
                    "display": "DOE, JOE"
                }
            }
        },
        {
            "id": "Observation/2cef0f91-485c-4eb6-983c-e86240d8a36b",
            "content": {
                "resourceType": "Observation",
                "name": {
                    "coding": [
                        {
                            "system": "http://loinc.org",
                            "code": "39156-5",
                            "display": "BMI"
                        }
                    ],
                    "text": "BMI"
                },
                "valueQuantity": {
                    "value": 29.3,
                    "units": "kg/m2",
                    "code": "kg/m2",
                    "system": "http://unitsofmeasure.org"
                },
                "issued": "2010-08-06",
                "status": "final",
                "reliability": "ok",
                "extension": [
                    {
                        "url": "http://amida.com/fhir/Profile/extensions#observation-type",
                        "valueCoding": {
                            "code": "8716-3",
                            "display": "Vital signs",
                            "system": "http://loinc.org"
                        }
                    }
                ],
                "subject": {
                    "reference": "Patient/some-id-here-1987",
                    "display": "DOE, JOE"
                }
            }
        },
        {
            "id": "Observation/915c8d16-f50e-45a8-b5a6-ae43ad78ecd5",
            "content": {
                "resourceType": "Observation",
                "name": {
                    "coding": [
                        {
                            "system": "http://loinc.org",
                            "code": "55418-8",
                            "display": "Weight and Height tracking panel"
                        }
                    ],
                    "text": "Weight and Height tracking panel"
                },
                "issued": "2010-04-02",
                "status": "final",
                "reliability": "ok",
                "extension": [
                    {
                        "url": "http://amida.com/fhir/Profile/extensions#observation-type",
                        "valueCoding": {
                            "code": "8716-3",
                            "display": "Vital signs",
                            "system": "http://loinc.org"
                        }
                    }
                ],
                "related": [
                    {
                        "type": "has-component",
                        "target": {
                            "reference": "Observation/62a97d89-d985-4a9c-998d-6f68029533ff"
                        }
                    }
                ],
                "subject": {
                    "reference": "Patient/some-id-here-1987",
                    "display": "DOE, JOE"
                }
            }
        },
        {
            "id": "Observation/a821a2f1-a532-4e7a-a9e8-4fddfc7dfe3d",
            "content": {
                "resourceType": "Observation",
                "name": {
                    "coding": [
                        {
                            "system": "http://loinc.org",
                            "code": "55418-8",
                            "display": "Weight and Height tracking panel"
                        }
                    ],
                    "text": "Weight and Height tracking panel"
                },
                "issued": "2010-07-15",
                "status": "final",
                "reliability": "ok",
                "extension": [
                    {
                        "url": "http://amida.com/fhir/Profile/extensions#observation-type",
                        "valueCoding": {
                            "code": "8716-3",
                            "display": "Vital signs",
                            "system": "http://loinc.org"
                        }
                    }
                ],
                "related": [
                    {
                        "type": "has-component",
                        "target": {
                            "reference": "Observation/6790ccb2-99e1-4c33-900d-2b7ef8103454"
                        }
                    }
                ],
                "subject": {
                    "reference": "Patient/some-id-here-1987",
                    "display": "DOE, JOE"
                }
            }
        },
        {
            "id": "Observation/87966f95-a3a1-4408-aa2c-834302b1069a",
            "content": {
                "resourceType": "Observation",
                "name": {
                    "coding": [
                        {
                            "system": "http://loinc.org",
                            "code": "55418-8",
                            "display": "Weight and Height tracking panel"
                        }
                    ],
                    "text": "Weight and Height tracking panel"
                },
                "issued": "2010-07-28",
                "status": "final",
                "reliability": "ok",
                "extension": [
                    {
                        "url": "http://amida.com/fhir/Profile/extensions#observation-type",
                        "valueCoding": {
                            "code": "8716-3",
                            "display": "Vital signs",
                            "system": "http://loinc.org"
                        }
                    }
                ],
                "related": [
                    {
                        "type": "has-component",
                        "target": {
                            "reference": "Observation/9aac1527-b6b7-4bc6-8f92-71b45446fe01"
                        }
                    }
                ],
                "subject": {
                    "reference": "Patient/some-id-here-1987",
                    "display": "DOE, JOE"
                }
            }
        },
        {
            "id": "Observation/fc6f1a15-a72f-4a58-851e-a16dc9eddff7",
            "content": {
                "resourceType": "Observation",
                "name": {
                    "coding": [
                        {
                            "system": "http://loinc.org",
                            "code": "55418-8",
                            "display": "Weight and Height tracking panel"
                        }
                    ],
                    "text": "Weight and Height tracking panel"
                },
                "issued": "2010-08-06",
                "status": "final",
                "reliability": "ok",
                "extension": [
                    {
                        "url": "http://amida.com/fhir/Profile/extensions#observation-type",
                        "valueCoding": {
                            "code": "8716-3",
                            "display": "Vital signs",
                            "system": "http://loinc.org"
                        }
                    }
                ],
                "related": [
                    {
                        "type": "has-component",
                        "target": {
                            "reference": "Observation/2cef0f91-485c-4eb6-983c-e86240d8a36b"
                        }
                    }
                ],
                "subject": {
                    "reference": "Patient/some-id-here-1987",
                    "display": "DOE, JOE"
                }
            }
        },
        {
            "id": "Observation/18be80eb-07b9-4523-b563-876fe8e04183",
            "content": {
                "resourceType": "Observation",
                "name": {
                    "coding": [
                        {
                            "system": "http://loinc.org",
                            "code": "35094-2",
                            "display": "Blood pressure panel"
                        }
                    ],
                    "text": "Blood pressure panel"
                },
                "issued": "2010-07-15",
                "status": "final",
                "reliability": "ok",
                "extension": [
                    {
                        "url": "http://amida.com/fhir/Profile/extensions#observation-type",
                        "valueCoding": {
                            "code": "8716-3",
                            "display": "Vital signs",
                            "system": "http://loinc.org"
                        }
                    }
                ],
                "related": [
                    {
                        "type": "has-component",
                        "target": {
                            "reference": "Observation/47a9b87d-f2c9-438c-99f7-9761ec693bec"
                        }
                    },
                    {
                        "type": "has-component",
                        "target": {
                            "reference": "Observation/f849a056-892f-4dcc-9054-d972556c2c41"
                        }
                    }
                ],
                "subject": {
                    "reference": "Patient/some-id-here-1987",
                    "display": "DOE, JOE"
                }
            }
        },
        {
            "id": "Condition/725ec0fa-a0c1-42fe-a75f-6bf1a906a2c5",
            "content": {
                "resourceType": "Condition",
                "status": "confirmed",
                "onsetDate": "2010-04-02",
                "dateAsserted": "2010-04-02",
                "code": {
                    "coding": [
                        {
                            "system": "http://snomed.info/sct",
                            "code": "44054006",
                            "display": "Diabetes mellitus type 2"
                        }
                    ],
                    "text": "Diabetes mellitus type 2"
                },
                "subject": {
                    "reference": "Patient/some-id-here-1987",
                    "display": "DOE, JOE"
                }
            }
        },
        {
            "id": "Condition/4ee61ebf-370e-4f01-b946-273dda471892",
            "content": {
                "resourceType": "Condition",
                "status": "confirmed",
                "onsetDate": "2010-06-10",
                "dateAsserted": "2010-06-10",
                "code": {
                    "coding": [
                        {
                            "system": "http://snomed.info/sct",
                            "code": "261650005",
                            "display": "Tumor stage T1c"
                        }
                    ],
                    "text": "Tumor stage T1c"
                },
                "subject": {
                    "reference": "Patient/some-id-here-1987",
                    "display": "DOE, JOE"
                }
            }
        },
        {
            "id": "Condition/5ee88cf5-c50b-4f73-ac1e-a3977e47bf85",
            "content": {
                "resourceType": "Condition",
                "status": "confirmed",
                "onsetDate": "2010-06-10",
                "dateAsserted": "2010-06-10",
                "code": {
                    "coding": [
                        {
                            "system": "http://snomed.info/sct",
                            "code": "399068003",
                            "display": "Malignant tumor of prostate"
                        }
                    ],
                    "text": "Malignant tumor of prostate"
                },
                "subject": {
                    "reference": "Patient/some-id-here-1987",
                    "display": "DOE, JOE"
                }
            }
        },
        {
            "id": "Condition/f0bf3a92-db70-4a22-b30a-4ae97aba0729",
            "content": {
                "resourceType": "Condition",
                "status": "confirmed",
                "onsetDate": "2010-12-07",
                "dateAsserted": "2010-12-07",
                "code": {
                    "coding": [
                        {
                            "system": "http://snomed.info/sct",
                            "code": "84494001",
                            "display": "Open-angle glaucoma"
                        }
                    ],
                    "text": "Open-angle glaucoma"
                },
                "subject": {
                    "reference": "Patient/some-id-here-1987",
                    "display": "DOE, JOE"
                }
            }
        },
        {
            "id": "Observation/07f73c69-b288-4698-a6f4-ae46cc34f053",
            "content": {
                "resourceType": "Observation",
                "name": {
                    "coding": [
                        {
                            "system": "http://loinc.org",
                            "code": "35266-6",
                            "display": "Gleason Score Spec Ql"
                        }
                    ],
                    "text": "Gleason Score Spec Ql"
                },
                "valueQuantity": {
                    "value": 2,
                    "units": "NA",
                    "code": "NA",
                    "system": "http://unitsofmeasure.org"
                },
                "issued": "2010-06-10",
                "status": "final",
                "reliability": "ok",
                "extension": [
                    {
                        "url": "http://amida.com/fhir/Profile/extensions#observation-type",
                        "valueCoding": {
                            "code": "11502-2",
                            "display": "Laboratory report",
                            "system": "http://loinc.org"
                        }
                    }
                ],
                "interpretation": {
                    "coding": [
                        {
                            "system": "http://hl7.org/fhir/v2/0078",
                            "code": "N",
                            "display": "Normal"
                        }
                    ],
                    "text": "Normal"
                },
                "referenceRange": [
                    {
                        "meaning": {
                            "coding": [
                                {
                                    "system": "http://hl7.org/fhir/referencerange-meaning",
                                    "code": "normal",
                                    "display": "Normal Range"
                                }
                            ],
                            "text": "Normal Range"
                        },
                        "text": "2-10"
                    }
                ],
                "subject": {
                    "reference": "Patient/some-id-here-1987",
                    "display": "DOE, JOE"
                }
            }
        },
        {
            "id": "Observation/b22bb859-32c2-48bc-8283-d39a9ee38fe3",
            "content": {
                "resourceType": "Observation",
                "name": {
                    "coding": [
                        {
                            "system": "http://snomed.info/sct",
                            "code": "116784002",
                            "display": "Pathology"
                        }
                    ],
                    "text": "Pathology"
                },
                "status": "final",
                "reliability": "ok",
                "related": [
                    {
                        "type": "has-component",
                        "target": {
                            "reference": "Observation/07f73c69-b288-4698-a6f4-ae46cc34f053"
                        }
                    }
                ],
                "extension": [
                    {
                        "url": "http://amida.com/fhir/Profile/extensions#observation-type",
                        "valueCoding": {
                            "code": "11502-2",
                            "display": "Laboratory report",
                            "system": "http://loinc.org"
                        }
                    }
                ],
                "subject": {
                    "reference": "Patient/some-id-here-1987",
                    "display": "DOE, JOE"
                }
            }
        },
        {
            "id": "Observation/04772b7e-ef55-4599-8496-9a305e127bbc",
            "content": {
                "resourceType": "Observation",
                "name": {
                    "coding": [
                        {
                            "system": "http://loinc.org",
                            "code": "4548-4",
                            "display": "Hgb A1c MFr Bld"
                        }
                    ],
                    "text": "Hgb A1c MFr Bld"
                },
                "valueQuantity": {
                    "value": 6.9,
                    "units": "%",
                    "code": "%",
                    "system": "http://unitsofmeasure.org"
                },
                "issued": "2010-06-10",
                "status": "final",
                "reliability": "ok",
                "extension": [
                    {
                        "url": "http://amida.com/fhir/Profile/extensions#observation-type",
                        "valueCoding": {
                            "code": "11502-2",
                            "display": "Laboratory report",
                            "system": "http://loinc.org"
                        }
                    }
                ],
                "interpretation": {
                    "coding": [
                        {
                            "system": "http://hl7.org/fhir/v2/0078",
                            "code": "N",
                            "display": "Normal"
                        }
                    ],
                    "text": "Normal"
                },
                "referenceRange": [
                    {
                        "meaning": {
                            "coding": [
                                {
                                    "system": "http://hl7.org/fhir/referencerange-meaning",
                                    "code": "normal",
                                    "display": "Normal Range"
                                }
                            ],
                            "text": "Normal Range"
                        },
                        "text": "4-5.6%"
                    }
                ],
                "subject": {
                    "reference": "Patient/some-id-here-1987",
                    "display": "DOE, JOE"
                }
            }
        },
        {
            "id": "Observation/0d7f3f30-7bdd-4321-b973-ae5902a300ad",
            "content": {
                "resourceType": "Observation",
                "name": {
                    "coding": [
                        {
                            "system": "http://snomed.info/sct",
                            "code": "166312007",
                            "display": "Blood Chemistry"
                        }
                    ],
                    "text": "Blood Chemistry"
                },
                "status": "final",
                "reliability": "ok",
                "related": [
                    {
                        "type": "has-component",
                        "target": {
                            "reference": "Observation/04772b7e-ef55-4599-8496-9a305e127bbc"
                        }
                    }
                ],
                "extension": [
                    {
                        "url": "http://amida.com/fhir/Profile/extensions#observation-type",
                        "valueCoding": {
                            "code": "11502-2",
                            "display": "Laboratory report",
                            "system": "http://loinc.org"
                        }
                    }
                ],
                "subject": {
                    "reference": "Patient/some-id-here-1987",
                    "display": "DOE, JOE"
                }
            }
        },
        {
            "id": "Observation/5e713cba-8461-4d2e-977f-e84aa5cf75d4",
            "content": {
                "resourceType": "Observation",
                "name": {
                    "coding": [
                        {
                            "system": "http://loinc.org",
                            "code": "14646-4",
                            "display": "HDLc SerPl-sCnc"
                        }
                    ],
                    "text": "HDLc SerPl-sCnc"
                },
                "valueQuantity": {
                    "value": 57,
                    "units": "mg/dL",
                    "code": "mg/dL",
                    "system": "http://unitsofmeasure.org"
                },
                "issued": "2010-06-10",
                "status": "final",
                "reliability": "ok",
                "extension": [
                    {
                        "url": "http://amida.com/fhir/Profile/extensions#observation-type",
                        "valueCoding": {
                            "code": "11502-2",
                            "display": "Laboratory report",
                            "system": "http://loinc.org"
                        }
                    }
                ],
                "interpretation": {
                    "coding": [
                        {
                            "system": "http://hl7.org/fhir/v2/0078",
                            "code": "N",
                            "display": "Normal"
                        }
                    ],
                    "text": "Normal"
                },
                "referenceRange": [
                    {
                        "meaning": {
                            "coding": [
                                {
                                    "system": "http://hl7.org/fhir/referencerange-meaning",
                                    "code": "normal",
                                    "display": "Normal Range"
                                }
                            ],
                            "text": "Normal Range"
                        },
                        "text": ">=40 mg/dL"
                    }
                ],
                "subject": {
                    "reference": "Patient/some-id-here-1987",
                    "display": "DOE, JOE"
                }
            }
        },
        {
            "id": "Observation/c8620203-4266-4e3c-b124-facb2d72f9ba",
            "content": {
                "resourceType": "Observation",
                "name": {
                    "coding": [
                        {
                            "system": "http://loinc.org",
                            "code": "2089-1",
                            "display": "LDLc SerPl-mCnc"
                        }
                    ],
                    "text": "LDLc SerPl-mCnc"
                },
                "valueQuantity": {
                    "value": 68.8,
                    "units": "mg/dL",
                    "code": "mg/dL",
                    "system": "http://unitsofmeasure.org"
                },
                "issued": "2010-06-10",
                "status": "final",
                "reliability": "ok",
                "extension": [
                    {
                        "url": "http://amida.com/fhir/Profile/extensions#observation-type",
                        "valueCoding": {
                            "code": "11502-2",
                            "display": "Laboratory report",
                            "system": "http://loinc.org"
                        }
                    }
                ],
                "interpretation": {
                    "coding": [
                        {
                            "system": "http://hl7.org/fhir/v2/0078",
                            "code": "N",
                            "display": "Normal"
                        }
                    ],
                    "text": "Normal"
                },
                "referenceRange": [
                    {
                        "meaning": {
                            "coding": [
                                {
                                    "system": "http://hl7.org/fhir/referencerange-meaning",
                                    "code": "normal",
                                    "display": "Normal Range"
                                }
                            ],
                            "text": "Normal Range"
                        },
                        "text": "<130 mg/dL (calc)"
                    }
                ],
                "subject": {
                    "reference": "Patient/some-id-here-1987",
                    "display": "DOE, JOE"
                }
            }
        },
        {
            "id": "Observation/922442e6-593c-4fc6-b111-0c9264597344",
            "content": {
                "resourceType": "Observation",
                "name": {
                    "coding": [
                        {
                            "system": "http://snomed.info/sct",
                            "code": "16254007",
                            "display": "Lipid Panel"
                        }
                    ],
                    "text": "Lipid Panel"
                },
                "status": "final",
                "reliability": "ok",
                "related": [
                    {
                        "type": "has-component",
                        "target": {
                            "reference": "Observation/5e713cba-8461-4d2e-977f-e84aa5cf75d4"
                        }
                    },
                    {
                        "type": "has-component",
                        "target": {
                            "reference": "Observation/c8620203-4266-4e3c-b124-facb2d72f9ba"
                        }
                    }
                ],
                "extension": [
                    {
                        "url": "http://amida.com/fhir/Profile/extensions#observation-type",
                        "valueCoding": {
                            "code": "11502-2",
                            "display": "Laboratory report",
                            "system": "http://loinc.org"
                        }
                    }
                ],
                "subject": {
                    "reference": "Patient/some-id-here-1987",
                    "display": "DOE, JOE"
                }
            }
        },
        {
            "id": "Observation/ca60de43-4ee1-4206-b1a3-f3d7b1f2d379",
            "content": {
                "resourceType": "Observation",
                "name": {
                    "coding": [
                        {
                            "system": "http://loinc.org",
                            "code": "19195-7",
                            "display": "PSA SerPl-aCnc"
                        }
                    ],
                    "text": "PSA SerPl-aCnc"
                },
                "valueQuantity": {
                    "value": 0.8,
                    "units": "ng/mL",
                    "code": "ng/mL",
                    "system": "http://unitsofmeasure.org"
                },
                "issued": "2010-06-10",
                "status": "final",
                "reliability": "ok",
                "extension": [
                    {
                        "url": "http://amida.com/fhir/Profile/extensions#observation-type",
                        "valueCoding": {
                            "code": "11502-2",
                            "display": "Laboratory report",
                            "system": "http://loinc.org"
                        }
                    }
                ],
                "interpretation": {
                    "coding": [
                        {
                            "system": "http://hl7.org/fhir/v2/0078",
                            "code": "N",
                            "display": "Normal"
                        }
                    ],
                    "text": "Normal"
                },
                "referenceRange": [
                    {
                        "meaning": {
                            "coding": [
                                {
                                    "system": "http://hl7.org/fhir/referencerange-meaning",
                                    "code": "normal",
                                    "display": "Normal Range"
                                }
                            ],
                            "text": "Normal Range"
                        },
                        "text": "<2.5 ng/mL"
                    }
                ],
                "subject": {
                    "reference": "Patient/some-id-here-1987",
                    "display": "DOE, JOE"
                }
            }
        },
        {
            "id": "Observation/dcab6198-b5ed-4509-ba67-6303a1cbebe9",
            "content": {
                "resourceType": "Observation",
                "name": {
                    "coding": [
                        {
                            "system": "http://snomed.info/sct",
                            "code": "166312007",
                            "display": "Blood Chemistry"
                        }
                    ],
                    "text": "Blood Chemistry"
                },
                "status": "final",
                "reliability": "ok",
                "related": [
                    {
                        "type": "has-component",
                        "target": {
                            "reference": "Observation/ca60de43-4ee1-4206-b1a3-f3d7b1f2d379"
                        }
                    }
                ],
                "extension": [
                    {
                        "url": "http://amida.com/fhir/Profile/extensions#observation-type",
                        "valueCoding": {
                            "code": "11502-2",
                            "display": "Laboratory report",
                            "system": "http://loinc.org"
                        }
                    }
                ],
                "subject": {
                    "reference": "Patient/some-id-here-1987",
                    "display": "DOE, JOE"
                }
            }
        },
        {
            "id": "Observation/9e395539-fa93-4f2b-bfba-eb501c1fa27e",
            "content": {
                "resourceType": "Observation",
                "name": {
                    "coding": [
                        {
                            "system": "http://loinc.org",
                            "code": "2093-3",
                            "display": "Cholest SerPl-mCnc"
                        }
                    ],
                    "text": "Cholest SerPl-mCnc"
                },
                "valueQuantity": {
                    "value": 147,
                    "units": "mg/dL",
                    "code": "mg/dL",
                    "system": "http://unitsofmeasure.org"
                },
                "issued": "2010-06-10",
                "status": "final",
                "reliability": "ok",
                "extension": [
                    {
                        "url": "http://amida.com/fhir/Profile/extensions#observation-type",
                        "valueCoding": {
                            "code": "11502-2",
                            "display": "Laboratory report",
                            "system": "http://loinc.org"
                        }
                    }
                ],
                "interpretation": {
                    "coding": [
                        {
                            "system": "http://hl7.org/fhir/v2/0078",
                            "code": "N",
                            "display": "Normal"
                        }
                    ],
                    "text": "Normal"
                },
                "referenceRange": [
                    {
                        "meaning": {
                            "coding": [
                                {
                                    "system": "http://hl7.org/fhir/referencerange-meaning",
                                    "code": "normal",
                                    "display": "Normal Range"
                                }
                            ],
                            "text": "Normal Range"
                        },
                        "text": "125-200 mg/dL"
                    }
                ],
                "subject": {
                    "reference": "Patient/some-id-here-1987",
                    "display": "DOE, JOE"
                }
            }
        },
        {
            "id": "Observation/bcdbf020-b805-492f-b70c-2725fd3d8c3f",
            "content": {
                "resourceType": "Observation",
                "name": {
                    "coding": [
                        {
                            "system": "http://loinc.org",
                            "code": "12951-0",
                            "display": "Trigl SerPl Calc-mCnc"
                        }
                    ],
                    "text": "Trigl SerPl Calc-mCnc"
                },
                "valueQuantity": {
                    "value": 106,
                    "units": "mg/dL",
                    "code": "mg/dL",
                    "system": "http://unitsofmeasure.org"
                },
                "issued": "2010-06-10",
                "status": "final",
                "reliability": "ok",
                "extension": [
                    {
                        "url": "http://amida.com/fhir/Profile/extensions#observation-type",
                        "valueCoding": {
                            "code": "11502-2",
                            "display": "Laboratory report",
                            "system": "http://loinc.org"
                        }
                    }
                ],
                "interpretation": {
                    "coding": [
                        {
                            "system": "http://hl7.org/fhir/v2/0078",
                            "code": "N",
                            "display": "Normal"
                        }
                    ],
                    "text": "Normal"
                },
                "referenceRange": [
                    {
                        "meaning": {
                            "coding": [
                                {
                                    "system": "http://hl7.org/fhir/referencerange-meaning",
                                    "code": "normal",
                                    "display": "Normal Range"
                                }
                            ],
                            "text": "Normal Range"
                        },
                        "text": "10-39 years: 55-110 mg/dL | 40-59 years: 70-150 mg/dL | >60 years: 80-150 mg/dL | Therapeutic Target: <100 mg/dL"
                    }
                ],
                "subject": {
                    "reference": "Patient/some-id-here-1987",
                    "display": "DOE, JOE"
                }
            }
        },
        {
            "id": "Observation/adb0c2f5-8ae7-4918-8fb3-3f38a93fc752",
            "content": {
                "resourceType": "Observation",
                "name": {
                    "coding": [
                        {
                            "system": "http://snomed.info/sct",
                            "code": "16254007",
                            "display": "Lipid Panel"
                        }
                    ],
                    "text": "Lipid Panel"
                },
                "status": "final",
                "reliability": "ok",
                "related": [
                    {
                        "type": "has-component",
                        "target": {
                            "reference": "Observation/9e395539-fa93-4f2b-bfba-eb501c1fa27e"
                        }
                    },
                    {
                        "type": "has-component",
                        "target": {
                            "reference": "Observation/bcdbf020-b805-492f-b70c-2725fd3d8c3f"
                        }
                    }
                ],
                "extension": [
                    {
                        "url": "http://amida.com/fhir/Profile/extensions#observation-type",
                        "valueCoding": {
                            "code": "11502-2",
                            "display": "Laboratory report",
                            "system": "http://loinc.org"
                        }
                    }
                ],
                "subject": {
                    "reference": "Patient/some-id-here-1987",
                    "display": "DOE, JOE"
                }
            }
        },
        {
            "id": "MedicationPrescription/a2ccd276-4083-497b-af88-26b1b725c35d",
            "content": {
                "resourceType": "MedicationPrescription",
                "status": "active",
                "dateWritten": "2010-04-02",
                "dosageInstruction": [
                    {
                        "timingPeriod": {
                            "start": "2010-04-02"
                        }
                    }
                ],
                "medication": {
                    "reference": "Medication/750f2bfe-cd1f-4558-81ec-141da8daefe4",
                    "display": "Biguanides + Metformin hydrochloride 500 MG Oral Tablet"
                },
                "patient": {
                    "reference": "Patient/some-id-here-1987",
                    "display": "DOE, JOE"
                }
            }
        },
        {
            "id": "MedicationAdministration/f865108c-5761-4a48-9a32-feebad479549",
            "content": {
                "resourceType": "MedicationAdministration",
                "status": "completed",
                "practitioner": {
                    "reference": "Practitioner/unknown",
                    "display": "Unknown"
                },
                "whenGiven": {
                    "start": "2010-04-02"
                },
                "dosage": [
                    {
                        "timingPeriod": {
                            "start": "2010-04-02"
                        }
                    }
                ],
                "prescription": {
                    "reference": "MedicationPrescription/a2ccd276-4083-497b-af88-26b1b725c35d"
                },
                "medication": {
                    "reference": "Medication/d52bfd2b-80fd-4dd4-883e-7a8cae103107",
                    "display": "Biguanides + Metformin hydrochloride 500 MG Oral Tablet"
                },
                "patient": {
                    "reference": "Patient/some-id-here-1987",
                    "display": "DOE, JOE"
                }
            }
        },
        {
            "id": "MedicationPrescription/d3e3353e-b688-4b7b-aa33-c5555829e62e",
            "content": {
                "resourceType": "MedicationPrescription",
                "status": "active",
                "dateWritten": "2010-04-02",
                "dosageInstruction": [
                    {
                        "timingPeriod": {
                            "start": "2010-04-02"
                        }
                    }
                ],
                "medication": {
                    "reference": "Medication/a4da99a1-e1be-4a08-aa0d-086c27ccf7a1",
                    "display": "Smoking Cessation Agents + 24 HR Nicotine 0.313 MG/HR Transdermal Patch"
                },
                "patient": {
                    "reference": "Patient/some-id-here-1987",
                    "display": "DOE, JOE"
                }
            }
        },
        {
            "id": "MedicationAdministration/7643e10f-aa77-466b-881a-d2e1887f48e5",
            "content": {
                "resourceType": "MedicationAdministration",
                "status": "completed",
                "practitioner": {
                    "reference": "Practitioner/unknown",
                    "display": "Unknown"
                },
                "whenGiven": {
                    "start": "2010-04-02"
                },
                "dosage": [
                    {
                        "timingPeriod": {
                            "start": "2010-04-02"
                        }
                    }
                ],
                "prescription": {
                    "reference": "MedicationPrescription/d3e3353e-b688-4b7b-aa33-c5555829e62e"
                },
                "medication": {
                    "reference": "Medication/90335836-1f75-4520-a7ba-0681ea7e732e",
                    "display": "Smoking Cessation Agents + 24 HR Nicotine 0.313 MG/HR Transdermal Patch"
                },
                "patient": {
                    "reference": "Patient/some-id-here-1987",
                    "display": "DOE, JOE"
                }
            }
        },
        {
            "id": "Substance/320af592-7316-43d3-85cf-214a0572cd02",
            "content": {
                "resourceType": "Substance",
                "type": {
                    "coding": [
                        {
                            "system": "http://fdasis.nlm.nih.gov",
                            "code": "291P45F896",
                            "display": "Eggs"
                        }
                    ],
                    "text": "Eggs"
                }
            }
        },
        {
            "id": "Substance/d5085cff-944b-4a7a-bef0-a331d0e24d97",
            "content": {
                "resourceType": "Substance",
                "type": {
                    "coding": [
                        {
                            "system": "http://www.nlm.nih.gov/research/umls/rxnorm",
                            "code": "905148",
                            "display": "Amikacin Sulfate 50 MG/ML Injectable Solution"
                        }
                    ],
                    "text": "Amikacin Sulfate 50 MG/ML Injectable Solution"
                }
            }
        },
        {
            "id": "Substance/27ebb878-d7fe-42c1-864e-31b2b7a4d642",
            "content": {
                "resourceType": "Substance",
                "type": {
                    "coding": [
                        {
                            "system": "http://www.nlm.nih.gov/research/umls/rxnorm",
                            "code": "406524",
                            "display": "Doxycycline 75 MG Enteric Coated Tablet"
                        }
                    ],
                    "text": "Doxycycline 75 MG Enteric Coated Tablet"
                }
            }
        },
        {
            "id": "Medication/750f2bfe-cd1f-4558-81ec-141da8daefe4",
            "content": {
                "resourceType": "Medication",
                "name": "Biguanides + Metformin hydrochloride 500 MG Oral Tablet",
                "code": {
                    "coding": [
                        {
                            "system": "http://www.nlm.nih.gov/research/umls/rxnorm",
                            "code": "861007",
                            "display": "Metformin hydrochloride 500 MG Oral Tablet"
                        }
                    ],
                    "text": "Metformin hydrochloride 500 MG Oral Tablet"
                }
            }
        },
        {
            "id": "Medication/d52bfd2b-80fd-4dd4-883e-7a8cae103107",
            "content": {
                "resourceType": "Medication",
                "name": "Biguanides + Metformin hydrochloride 500 MG Oral Tablet",
                "code": {
                    "coding": [
                        {
                            "system": "http://www.nlm.nih.gov/research/umls/rxnorm",
                            "code": "861007",
                            "display": "Metformin hydrochloride 500 MG Oral Tablet"
                        }
                    ],
                    "text": "Metformin hydrochloride 500 MG Oral Tablet"
                }
            }
        },
        {
            "id": "Medication/a4da99a1-e1be-4a08-aa0d-086c27ccf7a1",
            "content": {
                "resourceType": "Medication",
                "name": "Smoking Cessation Agents + 24 HR Nicotine 0.313 MG/HR Transdermal Patch",
                "code": {
                    "coding": [
                        {
                            "system": "http://www.nlm.nih.gov/research/umls/rxnorm",
                            "code": "1046847",
                            "display": "24 HR Nicotine 0.313 MG/HR Transdermal Patch"
                        }
                    ],
                    "text": "24 HR Nicotine 0.313 MG/HR Transdermal Patch"
                }
            }
        },
        {
            "id": "Medication/90335836-1f75-4520-a7ba-0681ea7e732e",
            "content": {
                "resourceType": "Medication",
                "name": "Smoking Cessation Agents + 24 HR Nicotine 0.313 MG/HR Transdermal Patch",
                "code": {
                    "coding": [
                        {
                            "system": "http://www.nlm.nih.gov/research/umls/rxnorm",
                            "code": "1046847",
                            "display": "24 HR Nicotine 0.313 MG/HR Transdermal Patch"
                        }
                    ],
                    "text": "24 HR Nicotine 0.313 MG/HR Transdermal Patch"
                }
            }
        }
    ]
}