{
    "resourceType": "Bundle",
    "totalResults": 33,
    "entry": [
        {
            "id": "Patient/some-id-here-1987",
            "content": {
                "resourceType": "Patient",
                "identifier": [
                    {
                        "system": "http://www.midea-tecg.com",
                        "value": "JOE_DOE_IDENTIFIER"
                    }
                ],
                "name": [
                    {
                        "family": [
                            "DOE"
                        ],
                        "given": [
                            "JOE"
                        ]
                    }
                ]
            }
        },
        {
            "id": "AllergyIntolerance/b4b69420-dbb5-49a0-8989-17dfec95cd49",
            "content": {
                "resourceType": "AllergyIntolerance",
                "criticality": "medium",
                "sensitivityType": "allergy",
                "recordedDate": "2010-06-05",
                "status": "confirmed",
                "substance": {
                    "reference": "Substance/ac3f9a41-852c-4b11-b736-66343accbe1d",
                    "display": "Eggs"
                },
                "subject": {
                    "reference": "Patient/some-id-here-1987",
                    "display": "DOE, JOE"
                }
            }
        },
        {
            "id": "AllergyIntolerance/a6c66ed2-bc25-4026-9c3d-c495b9fce23a",
            "content": {
                "resourceType": "AllergyIntolerance",
                "criticality": "low",
                "sensitivityType": "allergy",
                "recordedDate": "2010-06-05",
                "status": "confirmed",
                "substance": {
                    "reference": "Substance/d2ee7317-3c63-4652-ba16-d6f2aa91b07e",
                    "display": "Baker's yeast allergenic extract 100 MG/ML Injectable Solution"
                },
                "subject": {
                    "reference": "Patient/some-id-here-1987",
                    "display": "DOE, JOE"
                }
            }
        },
        {
            "id": "AllergyIntolerance/707d613a-fd8a-40e1-ad34-70f102bb5b8d",
            "content": {
                "resourceType": "AllergyIntolerance",
                "criticality": "fatal",
                "sensitivityType": "allergy",
                "recordedDate": "2010-06-05",
                "status": "confirmed",
                "substance": {
                    "reference": "Substance/78f3f321-498a-4f2f-9409-8553013fafea",
                    "display": "Penicillin V"
                },
                "subject": {
                    "reference": "Patient/some-id-here-1987",
                    "display": "DOE, JOE"
                }
            }
        },
        {
            "id": "Observation/9ca57b11-56f7-4b3a-b12f-89d61f6b850a",
            "content": {
                "resourceType": "Observation",
                "name": {
                    "coding": [
                        {
                            "system": "http://loinc.org",
                            "code": "8462-4",
                            "display": "BP Diastolic"
                        }
                    ],
                    "text": "BP Diastolic"
                },
                "valueQuantity": {
                    "value": 74,
                    "units": "mm[Hg]",
                    "code": "mm[Hg]",
                    "system": "http://unitsofmeasure.org"
                },
                "issued": "2010-06-05",
                "status": "final",
                "reliability": "ok",
                "extension": [
                    {
                        "url": "http://amida.com/fhir/Profile/extensions#observation-type",
                        "valueCoding": {
                            "code": "8716-3",
                            "display": "Vital signs",
                            "system": "http://loinc.org"
                        }
                    }
                ],
                "subject": {
                    "reference": "Patient/some-id-here-1987",
                    "display": "DOE, JOE"
                }
            }
        },
        {
            "id": "Observation/715c674a-fe33-482a-ae8b-7e4e726da17b",
            "content": {
                "resourceType": "Observation",
                "name": {
                    "coding": [
                        {
                            "system": "http://loinc.org",
                            "code": "8867-4",
                            "display": "Heart Rate"
                        }
                    ],
                    "text": "Heart Rate"
                },
                "valueQuantity": {
                    "value": 74,
                    "units": "/min",
                    "code": "/min",
                    "system": "http://unitsofmeasure.org"
                },
                "issued": "2010-06-05",
                "status": "final",
                "reliability": "ok",
                "extension": [
                    {
                        "url": "http://amida.com/fhir/Profile/extensions#observation-type",
                        "valueCoding": {
                            "code": "8716-3",
                            "display": "Vital signs",
                            "system": "http://loinc.org"
                        }
                    }
                ],
                "subject": {
                    "reference": "Patient/some-id-here-1987",
                    "display": "DOE, JOE"
                }
            }
        },
        {
            "id": "Observation/fc959253-afe2-4a3b-ae76-549c6eeca206",
            "content": {
                "resourceType": "Observation",
                "name": {
                    "coding": [
                        {
                            "system": "http://loinc.org",
                            "code": "8480-6",
                            "display": "BP Systolic"
                        }
                    ],
                    "text": "BP Systolic"
                },
                "valueQuantity": {
                    "value": 132,
                    "units": "mm[Hg]",
                    "code": "mm[Hg]",
                    "system": "http://unitsofmeasure.org"
                },
                "issued": "2010-06-05",
                "status": "final",
                "reliability": "ok",
                "extension": [
                    {
                        "url": "http://amida.com/fhir/Profile/extensions#observation-type",
                        "valueCoding": {
                            "code": "8716-3",
                            "display": "Vital signs",
                            "system": "http://loinc.org"
                        }
                    }
                ],
                "subject": {
                    "reference": "Patient/some-id-here-1987",
                    "display": "DOE, JOE"
                }
            }
        },
        {
            "id": "Observation/3ada50a6-1815-4836-b2a1-36f45da0581f",
            "content": {
                "resourceType": "Observation",
                "name": {
                    "coding": [
                        {
                            "system": "http://loinc.org",
                            "code": "39156-5",
                            "display": "BMI"
                        }
                    ],
                    "text": "BMI"
                },
                "valueQuantity": {
                    "value": 30.1,
                    "units": "kg/m2",
                    "code": "kg/m2",
                    "system": "http://unitsofmeasure.org"
                },
                "issued": "2010-06-10",
                "status": "final",
                "reliability": "ok",
                "extension": [
                    {
                        "url": "http://amida.com/fhir/Profile/extensions#observation-type",
                        "valueCoding": {
                            "code": "8716-3",
                            "display": "Vital signs",
                            "system": "http://loinc.org"
                        }
                    }
                ],
                "subject": {
                    "reference": "Patient/some-id-here-1987",
                    "display": "DOE, JOE"
                }
            }
        },
        {
            "id": "Observation/f40c2d77-4e53-42a8-9bfe-64a9c5945fe7",
            "content": {
                "resourceType": "Observation",
                "name": {
                    "coding": [
                        {
                            "system": "http://loinc.org",
                            "code": "39156-5",
                            "display": "BMI"
                        }
                    ],
                    "text": "BMI"
                },
                "valueQuantity": {
                    "value": 28.6,
                    "units": "kg/m2",
                    "code": "kg/m2",
                    "system": "http://unitsofmeasure.org"
                },
                "issued": "2010-10-31",
                "status": "final",
                "reliability": "ok",
                "extension": [
                    {
                        "url": "http://amida.com/fhir/Profile/extensions#observation-type",
                        "valueCoding": {
                            "code": "8716-3",
                            "display": "Vital signs",
                            "system": "http://loinc.org"
                        }
                    }
                ],
                "subject": {
                    "reference": "Patient/some-id-here-1987",
                    "display": "DOE, JOE"
                }
            }
        },
        {
            "id": "Observation/b38a4174-2320-4be4-98ec-666dc748bab1",
            "content": {
                "resourceType": "Observation",
                "name": {
                    "coding": [
                        {
                            "system": "http://loinc.org",
                            "code": "8462-4",
                            "display": "BP Diastolic"
                        }
                    ],
                    "text": "BP Diastolic"
                },
                "valueQuantity": {
                    "value": 76,
                    "units": "mm[Hg]",
                    "code": "mm[Hg]",
                    "system": "http://unitsofmeasure.org"
                },
                "issued": "2010-10-31",
                "status": "final",
                "reliability": "ok",
                "extension": [
                    {
                        "url": "http://amida.com/fhir/Profile/extensions#observation-type",
                        "valueCoding": {
                            "code": "8716-3",
                            "display": "Vital signs",
                            "system": "http://loinc.org"
                        }
                    }
                ],
                "subject": {
                    "reference": "Patient/some-id-here-1987",
                    "display": "DOE, JOE"
                }
            }
        },
        {
            "id": "Observation/84ada0be-66f6-45a9-9d2d-c45e14640904",
            "content": {
                "resourceType": "Observation",
                "name": {
                    "coding": [
                        {
                            "system": "http://loinc.org",
                            "code": "8867-4",
                            "display": "Heart Rate"
                        }
                    ],
                    "text": "Heart Rate"
                },
                "valueQuantity": {
                    "value": 78,
                    "units": "/min",
                    "code": "/min",
                    "system": "http://unitsofmeasure.org"
                },
                "issued": "2010-10-31",
                "status": "final",
                "reliability": "ok",
                "extension": [
                    {
                        "url": "http://amida.com/fhir/Profile/extensions#observation-type",
                        "valueCoding": {
                            "code": "8716-3",
                            "display": "Vital signs",
                            "system": "http://loinc.org"
                        }
                    }
                ],
                "subject": {
                    "reference": "Patient/some-id-here-1987",
                    "display": "DOE, JOE"
                }
            }
        },
        {
            "id": "Observation/36ee408c-120d-4092-8e3a-8ec19dab0804",
            "content": {
                "resourceType": "Observation",
                "name": {
                    "coding": [
                        {
                            "system": "http://loinc.org",
                            "code": "8480-6",
                            "display": "BP Systolic"
                        }
                    ],
                    "text": "BP Systolic"
                },
                "valueQuantity": {
                    "value": 134,
                    "units": "mm[Hg]",
                    "code": "mm[Hg]",
                    "system": "http://unitsofmeasure.org"
                },
                "issued": "2010-10-31",
                "status": "final",
                "reliability": "ok",
                "extension": [
                    {
                        "url": "http://amida.com/fhir/Profile/extensions#observation-type",
                        "valueCoding": {
                            "code": "8716-3",
                            "display": "Vital signs",
                            "system": "http://loinc.org"
                        }
                    }
                ],
                "subject": {
                    "reference": "Patient/some-id-here-1987",
                    "display": "DOE, JOE"
                }
            }
        },
        {
            "id": "Observation/d74d1ff7-e9d0-41ec-94cf-3c3b58911d34",
            "content": {
                "resourceType": "Observation",
                "name": {
                    "coding": [
                        {
                            "system": "http://loinc.org",
                            "code": "35094-2",
                            "display": "Blood pressure panel"
                        }
                    ],
                    "text": "Blood pressure panel"
                },
                "issued": "2010-06-05",
                "status": "final",
                "reliability": "ok",
                "extension": [
                    {
                        "url": "http://amida.com/fhir/Profile/extensions#observation-type",
                        "valueCoding": {
                            "code": "8716-3",
                            "display": "Vital signs",
                            "system": "http://loinc.org"
                        }
                    }
                ],
                "related": [
                    {
                        "type": "has-component",
                        "target": {
                            "reference": "Observation/9ca57b11-56f7-4b3a-b12f-89d61f6b850a"
                        }
                    },
                    {
                        "type": "has-component",
                        "target": {
                            "reference": "Observation/fc959253-afe2-4a3b-ae76-549c6eeca206"
                        }
                    }
                ],
                "subject": {
                    "reference": "Patient/some-id-here-1987",
                    "display": "DOE, JOE"
                }
            }
        },
        {
            "id": "Observation/e8736223-7141-4833-aff0-a54726ef5a04",
            "content": {
                "resourceType": "Observation",
                "name": {
                    "coding": [
                        {
                            "system": "http://loinc.org",
                            "code": "35094-2",
                            "display": "Blood pressure panel"
                        }
                    ],
                    "text": "Blood pressure panel"
                },
                "issued": "2010-10-31",
                "status": "final",
                "reliability": "ok",
                "extension": [
                    {
                        "url": "http://amida.com/fhir/Profile/extensions#observation-type",
                        "valueCoding": {
                            "code": "8716-3",
                            "display": "Vital signs",
                            "system": "http://loinc.org"
                        }
                    }
                ],
                "related": [
                    {
                        "type": "has-component",
                        "target": {
                            "reference": "Observation/b38a4174-2320-4be4-98ec-666dc748bab1"
                        }
                    },
                    {
                        "type": "has-component",
                        "target": {
                            "reference": "Observation/36ee408c-120d-4092-8e3a-8ec19dab0804"
                        }
                    }
                ],
                "subject": {
                    "reference": "Patient/some-id-here-1987",
                    "display": "DOE, JOE"
                }
            }
        },
        {
            "id": "Observation/f855d6ec-c7ce-436a-9278-8a6a2c0a9bbd",
            "content": {
                "resourceType": "Observation",
                "name": {
                    "coding": [
                        {
                            "system": "http://loinc.org",
                            "code": "55418-8",
                            "display": "Weight and Height tracking panel"
                        }
                    ],
                    "text": "Weight and Height tracking panel"
                },
                "issued": "2010-06-10",
                "status": "final",
                "reliability": "ok",
                "extension": [
                    {
                        "url": "http://amida.com/fhir/Profile/extensions#observation-type",
                        "valueCoding": {
                            "code": "8716-3",
                            "display": "Vital signs",
                            "system": "http://loinc.org"
                        }
                    }
                ],
                "related": [
                    {
                        "type": "has-component",
                        "target": {
                            "reference": "Observation/3ada50a6-1815-4836-b2a1-36f45da0581f"
                        }
                    }
                ],
                "subject": {
                    "reference": "Patient/some-id-here-1987",
                    "display": "DOE, JOE"
                }
            }
        },
        {
            "id": "Observation/abacd431-9b2a-4fa8-94af-5d0b574b1e60",
            "content": {
                "resourceType": "Observation",
                "name": {
                    "coding": [
                        {
                            "system": "http://loinc.org",
                            "code": "55418-8",
                            "display": "Weight and Height tracking panel"
                        }
                    ],
                    "text": "Weight and Height tracking panel"
                },
                "issued": "2010-10-31",
                "status": "final",
                "reliability": "ok",
                "extension": [
                    {
                        "url": "http://amida.com/fhir/Profile/extensions#observation-type",
                        "valueCoding": {
                            "code": "8716-3",
                            "display": "Vital signs",
                            "system": "http://loinc.org"
                        }
                    }
                ],
                "related": [
                    {
                        "type": "has-component",
                        "target": {
                            "reference": "Observation/f40c2d77-4e53-42a8-9bfe-64a9c5945fe7"
                        }
                    }
                ],
                "subject": {
                    "reference": "Patient/some-id-here-1987",
                    "display": "DOE, JOE"
                }
            }
        },
        {
            "id": "Condition/315575d6-c891-4a3f-bc56-6c7398ff9b81",
            "content": {
                "resourceType": "Condition",
                "status": "confirmed",
                "onsetDate": "2010-06-05",
                "dateAsserted": "2010-06-05",
                "code": {
                    "coding": [
                        {
                            "system": "http://snomed.info/sct",
                            "code": "59621000",
                            "display": "Essential hypertension"
                        }
                    ],
                    "text": "Essential hypertension"
                },
                "subject": {
                    "reference": "Patient/some-id-here-1987",
                    "display": "DOE, JOE"
                }
            }
        },
        {
            "id": "Condition/fb16c627-08a0-427f-8ddc-af0701fcaca7",
            "content": {
                "resourceType": "Condition",
                "status": "confirmed",
                "onsetDate": "2010-07-31",
                "dateAsserted": "2010-07-31",
                "code": {
                    "coding": [
                        {
                            "system": "http://snomed.info/sct",
                            "code": "84114007",
                            "display": "Heart failure"
                        }
                    ],
                    "text": "Heart failure"
                },
                "subject": {
                    "reference": "Patient/some-id-here-1987",
                    "display": "DOE, JOE"
                }
            }
        },
        {
            "id": "MedicationPrescription/117b468e-6bbd-4349-8f66-3fa10c0949bb",
            "content": {
                "resourceType": "MedicationPrescription",
                "status": "active",
                "dateWritten": "2010-06-05",
                "dosageInstruction": [
                    {
                        "timingPeriod": {
                            "start": "2010-06-05"
                        }
                    }
                ],
                "medication": {
                    "reference": "Medication/bc74c5d2-c0a8-4ca7-8e40-b1a6952f33e3",
                    "display": "Antihypertensive combinations + Enalapril Maleate 10 MG / Hydrochlorothiazide 25 MG Oral Tablet"
                },
                "patient": {
                    "reference": "Patient/some-id-here-1987",
                    "display": "DOE, JOE"
                }
            }
        },
        {
            "id": "MedicationAdministration/7b1c7cb3-8890-4197-b37b-82be1834786a",
            "content": {
                "resourceType": "MedicationAdministration",
                "status": "completed",
                "practitioner": {
                    "reference": "Practitioner/unknown",
                    "display": "Unknown"
                },
                "whenGiven": {
                    "start": "2010-06-05"
                },
                "dosage": [
                    {
                        "timingPeriod": {
                            "start": "2010-06-05"
                        }
                    }
                ],
                "prescription": {
                    "reference": "MedicationPrescription/117b468e-6bbd-4349-8f66-3fa10c0949bb"
                },
                "medication": {
                    "reference": "Medication/c55c9550-f3a3-4416-8023-1cf36153faaa",
                    "display": "Antihypertensive combinations + Enalapril Maleate 10 MG / Hydrochlorothiazide 25 MG Oral Tablet"
                },
                "patient": {
                    "reference": "Patient/some-id-here-1987",
                    "display": "DOE, JOE"
                }
            }
        },
        {
            "id": "MedicationPrescription/55a30d8d-99a9-4b99-a47b-7fc7fbe70241",
            "content": {
                "resourceType": "MedicationPrescription",
                "status": "active",
                "dateWritten": "2010-07-31",
                "dosageInstruction": [
                    {
                        "timingPeriod": {
                            "start": "2010-07-31"
                        }
                    }
                ],
                "medication": {
                    "reference": "Medication/d6c29965-cfb8-4796-9ae2-6944845d1654",
                    "display": "ACE inhibitor or ARB + Lisinopril 10 MG Oral Tablet"
                },
                "patient": {
                    "reference": "Patient/some-id-here-1987",
                    "display": "DOE, JOE"
                }
            }
        },
        {
            "id": "MedicationAdministration/61aba83c-9010-4aca-bdeb-7149dd492f23",
            "content": {
                "resourceType": "MedicationAdministration",
                "status": "completed",
                "practitioner": {
                    "reference": "Practitioner/unknown",
                    "display": "Unknown"
                },
                "whenGiven": {
                    "start": "2010-07-31"
                },
                "dosage": [
                    {
                        "timingPeriod": {
                            "start": "2010-07-31"
                        }
                    }
                ],
                "prescription": {
                    "reference": "MedicationPrescription/55a30d8d-99a9-4b99-a47b-7fc7fbe70241"
                },
                "medication": {
                    "reference": "Medication/dd36804c-9a8d-41e8-b7b7-5ca06fe569c0",
                    "display": "ACE inhibitor or ARB + Lisinopril 10 MG Oral Tablet"
                },
                "patient": {
                    "reference": "Patient/some-id-here-1987",
                    "display": "DOE, JOE"
                }
            }
        },
        {
            "id": "MedicationPrescription/3d8073b3-0780-4be9-9b57-2d476596338c",
            "content": {
                "resourceType": "MedicationPrescription",
                "status": "active",
                "dateWritten": "2010-07-31",
                "dosageInstruction": [
                    {
                        "timingPeriod": {
                            "start": "2010-07-31"
                        }
                    }
                ],
                "medication": {
                    "reference": "Medication/fbd5a961-4591-4511-82de-1e6eaa9c11e2",
                    "display": "Beta Blocker Therapy + Metoprolol Tartrate 25 MG Oral Tablet"
                },
                "patient": {
                    "reference": "Patient/some-id-here-1987",
                    "display": "DOE, JOE"
                }
            }
        },
        {
            "id": "MedicationAdministration/b5cfd82a-ed49-4b4c-ab0f-db588b1a8c19",
            "content": {
                "resourceType": "MedicationAdministration",
                "status": "completed",
                "practitioner": {
                    "reference": "Practitioner/unknown",
                    "display": "Unknown"
                },
                "whenGiven": {
                    "start": "2010-07-31"
                },
                "dosage": [
                    {
                        "timingPeriod": {
                            "start": "2010-07-31"
                        }
                    }
                ],
                "prescription": {
                    "reference": "MedicationPrescription/3d8073b3-0780-4be9-9b57-2d476596338c"
                },
                "medication": {
                    "reference": "Medication/dcfa3e41-67f4-42ef-a757-7c9429a562b7",
                    "display": "Beta Blocker Therapy + Metoprolol Tartrate 25 MG Oral Tablet"
                },
                "patient": {
                    "reference": "Patient/some-id-here-1987",
                    "display": "DOE, JOE"
                }
            }
        },
        {
            "id": "Substance/ac3f9a41-852c-4b11-b736-66343accbe1d",
            "content": {
                "resourceType": "Substance",
                "type": {
                    "coding": [
                        {
                            "system": "http://fdasis.nlm.nih.gov",
                            "code": "291P45F896",
                            "display": "Eggs"
                        }
                    ],
                    "text": "Eggs"
                }
            }
        },
        {
            "id": "Substance/d2ee7317-3c63-4652-ba16-d6f2aa91b07e",
            "content": {
                "resourceType": "Substance",
                "type": {
                    "coding": [
                        {
                            "system": "http://www.nlm.nih.gov/research/umls/rxnorm",
                            "code": "892677",
                            "display": "Baker's yeast allergenic extract 100 MG/ML Injectable Solution"
                        }
                    ],
                    "text": "Baker's yeast allergenic extract 100 MG/ML Injectable Solution"
                }
            }
        },
        {
            "id": "Substance/78f3f321-498a-4f2f-9409-8553013fafea",
            "content": {
                "resourceType": "Substance",
                "type": {
                    "coding": [
                        {
                            "code": "N0000011298",
                            "display": "Penicillin V"
                        }
                    ],
                    "text": "Penicillin V"
                }
            }
        },
        {
            "id": "Medication/bc74c5d2-c0a8-4ca7-8e40-b1a6952f33e3",
            "content": {
                "resourceType": "Medication",
                "name": "Antihypertensive combinations + Enalapril Maleate 10 MG / Hydrochlorothiazide 25 MG Oral Tablet",
                "code": {
                    "coding": [
                        {
                            "system": "http://www.nlm.nih.gov/research/umls/rxnorm",
                            "code": "858828",
                            "display": "Enalapril Maleate 10 MG / Hydrochlorothiazide 25 MG Oral Tablet"
                        }
                    ],
                    "text": "Enalapril Maleate 10 MG / Hydrochlorothiazide 25 MG Oral Tablet"
                }
            }
        },
        {
            "id": "Medication/c55c9550-f3a3-4416-8023-1cf36153faaa",
            "content": {
                "resourceType": "Medication",
                "name": "Antihypertensive combinations + Enalapril Maleate 10 MG / Hydrochlorothiazide 25 MG Oral Tablet",
                "code": {
                    "coding": [
                        {
                            "system": "http://www.nlm.nih.gov/research/umls/rxnorm",
                            "code": "858828",
                            "display": "Enalapril Maleate 10 MG / Hydrochlorothiazide 25 MG Oral Tablet"
                        }
                    ],
                    "text": "Enalapril Maleate 10 MG / Hydrochlorothiazide 25 MG Oral Tablet"
                }
            }
        },
        {
            "id": "Medication/d6c29965-cfb8-4796-9ae2-6944845d1654",
            "content": {
                "resourceType": "Medication",
                "name": "ACE inhibitor or ARB + Lisinopril 10 MG Oral Tablet",
                "code": {
                    "coding": [
                        {
                            "system": "http://www.nlm.nih.gov/research/umls/rxnorm",
                            "code": "314076",
                            "display": "Lisinopril 10 MG Oral Tablet"
                        }
                    ],
                    "text": "Lisinopril 10 MG Oral Tablet"
                }
            }
        },
        {
            "id": "Medication/dd36804c-9a8d-41e8-b7b7-5ca06fe569c0",
            "content": {
                "resourceType": "Medication",
                "name": "ACE inhibitor or ARB + Lisinopril 10 MG Oral Tablet",
                "code": {
                    "coding": [
                        {
                            "system": "http://www.nlm.nih.gov/research/umls/rxnorm",
                            "code": "314076",
                            "display": "Lisinopril 10 MG Oral Tablet"
                        }
                    ],
                    "text": "Lisinopril 10 MG Oral Tablet"
                }
            }
        },
        {
            "id": "Medication/fbd5a961-4591-4511-82de-1e6eaa9c11e2",
            "content": {
                "resourceType": "Medication",
                "name": "Beta Blocker Therapy + Metoprolol Tartrate 25 MG Oral Tablet",
                "code": {
                    "coding": [
                        {
                            "system": "http://www.nlm.nih.gov/research/umls/rxnorm",
                            "code": "866924",
                            "display": "Metoprolol Tartrate 25 MG Oral Tablet"
                        }
                    ],
                    "text": "Metoprolol Tartrate 25 MG Oral Tablet"
                }
            }
        },
        {
            "id": "Medication/dcfa3e41-67f4-42ef-a757-7c9429a562b7",
            "content": {
                "resourceType": "Medication",
                "name": "Beta Blocker Therapy + Metoprolol Tartrate 25 MG Oral Tablet",
                "code": {
                    "coding": [
                        {
                            "system": "http://www.nlm.nih.gov/research/umls/rxnorm",
                            "code": "866924",
                            "display": "Metoprolol Tartrate 25 MG Oral Tablet"
                        }
                    ],
                    "text": "Metoprolol Tartrate 25 MG Oral Tablet"
                }
            }
        }
    ]
}