{
    "resourceType": "Bundle",
    "totalResults": 30,
    "entry": [
        {
            "id": "AllergyIntolerance/946f912c-cb8f-473a-8e8d-8b4c358afc75",
            "content": {
                "resourceType": "AllergyIntolerance",
                "criticality": "low",
                "sensitivityType": "allergy",
                "recordedDate": "2010-03-31",
                "status": "confirmed",
                "contained": [
                    {
                        "id": "allergen",
                        "resourceType": "Substance",
                        "type": {
                            "coding": [
                                {
                                    "system": "http://fdasis.nlm.nih.gov",
                                    "code": "291P45F896",
                                    "display": "Eggs"
                                }
                            ],
                            "text": "Eggs"
                        }
                    }
                ],
                "substance": {
                    "reference": "#allergen",
                    "display": "Eggs"
                }
            }
        },
        {
            "id": "AllergyIntolerance/7263dd26-a12f-4514-9699-7b975927fa55",
            "content": {
                "resourceType": "AllergyIntolerance",
                "criticality": "medium",
                "sensitivityType": "allergy",
                "recordedDate": "2010-03-31",
                "status": "confirmed",
                "contained": [
                    {
                        "id": "allergen",
                        "resourceType": "Substance",
                        "type": {
                            "coding": [
                                {
                                    "code": "N0000006691",
                                    "display": "Codeine"
                                }
                            ],
                            "text": "Codeine"
                        }
                    }
                ],
                "substance": {
                    "reference": "#allergen",
                    "display": "Codeine"
                }
            }
        },
        {
            "id": "AllergyIntolerance/f440405f-0d2a-4062-9ecf-956afbc15d6d",
            "content": {
                "resourceType": "AllergyIntolerance",
                "criticality": "low",
                "sensitivityType": "allergy",
                "recordedDate": "2010-03-31",
                "status": "confirmed",
                "contained": [
                    {
                        "id": "allergen",
                        "resourceType": "Substance",
                        "type": {
                            "coding": [
                                {
                                    "system": "http://www.nlm.nih.gov/research/umls/rxnorm",
                                    "code": "808917",
                                    "display": "Fosfomycin 33.3 MG/ML Oral Suspension"
                                }
                            ],
                            "text": "Fosfomycin 33.3 MG/ML Oral Suspension"
                        }
                    }
                ],
                "substance": {
                    "reference": "#allergen",
                    "display": "Fosfomycin 33.3 MG/ML Oral Suspension"
                }
            }
        },
        {
            "id": "Observation/cdf8308b-4eed-426f-a2b9-b15fcfd4def0",
            "content": {
                "resourceType": "Observation",
                "name": {
                    "coding": [
                        {
                            "system": "http://loinc.org",
                            "code": "8462-4",
                            "display": "BP Diastolic"
                        }
                    ],
                    "text": "BP Diastolic"
                },
                "valueQuantity": {
                    "value": 55,
                    "units": "mm[Hg]",
                    "code": "mm[Hg]",
                    "system": "http://unitsofmeasure.org"
                },
                "issued": "2010-03-31",
                "status": "final",
                "reliability": "ok",
                "extension": [
                    {
                        "url": "http://amida.com/fhir/Profile/extensions#observation-type",
                        "valueCoding": {
                            "code": "8716-3",
                            "display": "Vital signs",
                            "system": "http://loinc.org"
                        }
                    }
                ]
            }
        },
        {
            "id": "Observation/61ec5f7c-4c36-4a77-a9a6-5e45e6f7f8d0",
            "content": {
                "resourceType": "Observation",
                "name": {
                    "coding": [
                        {
                            "system": "http://loinc.org",
                            "code": "8480-6",
                            "display": "BP Systolic"
                        }
                    ],
                    "text": "BP Systolic"
                },
                "valueQuantity": {
                    "value": 96,
                    "units": "mm[Hg]",
                    "code": "mm[Hg]",
                    "system": "http://unitsofmeasure.org"
                },
                "issued": "2010-03-31",
                "status": "final",
                "reliability": "ok",
                "extension": [
                    {
                        "url": "http://amida.com/fhir/Profile/extensions#observation-type",
                        "valueCoding": {
                            "code": "8716-3",
                            "display": "Vital signs",
                            "system": "http://loinc.org"
                        }
                    }
                ]
            }
        },
        {
            "id": "Observation/03d457b0-ae83-4ba2-b7d9-87036258aafa",
            "content": {
                "resourceType": "Observation",
                "name": {
                    "coding": [
                        {
                            "system": "http://loinc.org",
                            "code": "39156-5",
                            "display": "BMI"
                        }
                    ],
                    "text": "BMI"
                },
                "valueQuantity": {
                    "value": 16.3,
                    "units": "kg/m2",
                    "code": "kg/m2",
                    "system": "http://unitsofmeasure.org"
                },
                "issued": "2010-05-06",
                "status": "final",
                "reliability": "ok",
                "extension": [
                    {
                        "url": "http://amida.com/fhir/Profile/extensions#observation-type",
                        "valueCoding": {
                            "code": "8716-3",
                            "display": "Vital signs",
                            "system": "http://loinc.org"
                        }
                    }
                ]
            }
        },
        {
            "id": "Observation/6feaae62-9af9-4ad2-99d8-62450e7f552b",
            "content": {
                "resourceType": "Observation",
                "name": {
                    "coding": [
                        {
                            "system": "http://loinc.org",
                            "code": "8462-4",
                            "display": "BP Diastolic"
                        }
                    ],
                    "text": "BP Diastolic"
                },
                "valueQuantity": {
                    "value": 56,
                    "units": "mm[Hg]",
                    "code": "mm[Hg]",
                    "system": "http://unitsofmeasure.org"
                },
                "issued": "2010-09-07",
                "status": "final",
                "reliability": "ok",
                "extension": [
                    {
                        "url": "http://amida.com/fhir/Profile/extensions#observation-type",
                        "valueCoding": {
                            "code": "8716-3",
                            "display": "Vital signs",
                            "system": "http://loinc.org"
                        }
                    }
                ]
            }
        },
        {
            "id": "Observation/6eb0acc5-c020-484c-8612-c2b04a95144b",
            "content": {
                "resourceType": "Observation",
                "name": {
                    "coding": [
                        {
                            "system": "http://loinc.org",
                            "code": "8480-6",
                            "display": "BP Systolic"
                        }
                    ],
                    "text": "BP Systolic"
                },
                "valueQuantity": {
                    "value": 98,
                    "units": "mm[Hg]",
                    "code": "mm[Hg]",
                    "system": "http://unitsofmeasure.org"
                },
                "issued": "2010-09-07",
                "status": "final",
                "reliability": "ok",
                "extension": [
                    {
                        "url": "http://amida.com/fhir/Profile/extensions#observation-type",
                        "valueCoding": {
                            "code": "8716-3",
                            "display": "Vital signs",
                            "system": "http://loinc.org"
                        }
                    }
                ]
            }
        },
        {
            "id": "Observation/ae1ac41e-7018-4140-8bc1-382fdbf12b90",
            "content": {
                "resourceType": "Observation",
                "name": {
                    "coding": [
                        {
                            "system": "http://loinc.org",
                            "code": "39156-5",
                            "display": "BMI"
                        }
                    ],
                    "text": "BMI"
                },
                "valueQuantity": {
                    "value": 16.9,
                    "units": "kg/m2",
                    "code": "kg/m2",
                    "system": "http://unitsofmeasure.org"
                },
                "issued": "2010-12-03",
                "status": "final",
                "reliability": "ok",
                "extension": [
                    {
                        "url": "http://amida.com/fhir/Profile/extensions#observation-type",
                        "valueCoding": {
                            "code": "8716-3",
                            "display": "Vital signs",
                            "system": "http://loinc.org"
                        }
                    }
                ]
            }
        },
        {
            "id": "Observation/732a9df1-c661-4d59-b73e-84cbf68560f4",
            "content": {
                "resourceType": "Observation",
                "name": {
                    "coding": [
                        {
                            "system": "http://loinc.org",
                            "code": "35094-2",
                            "display": "Blood pressure panel"
                        }
                    ],
                    "text": "Blood pressure panel"
                },
                "issued": "2010-03-31",
                "status": "final",
                "reliability": "ok",
                "extension": [
                    {
                        "url": "http://amida.com/fhir/Profile/extensions#observation-type",
                        "valueCoding": {
                            "code": "8716-3",
                            "display": "Vital signs",
                            "system": "http://loinc.org"
                        }
                    }
                ],
                "related": [
                    {
                        "type": "has-component",
                        "target": {
                            "reference": "Observation/cdf8308b-4eed-426f-a2b9-b15fcfd4def0"
                        }
                    },
                    {
                        "type": "has-component",
                        "target": {
                            "reference": "Observation/61ec5f7c-4c36-4a77-a9a6-5e45e6f7f8d0"
                        }
                    }
                ]
            }
        },
        {
            "id": "Observation/6fb7f655-ba02-4eb1-9ec9-3e7d98ed5609",
            "content": {
                "resourceType": "Observation",
                "name": {
                    "coding": [
                        {
                            "system": "http://loinc.org",
                            "code": "35094-2",
                            "display": "Blood pressure panel"
                        }
                    ],
                    "text": "Blood pressure panel"
                },
                "issued": "2010-09-07",
                "status": "final",
                "reliability": "ok",
                "extension": [
                    {
                        "url": "http://amida.com/fhir/Profile/extensions#observation-type",
                        "valueCoding": {
                            "code": "8716-3",
                            "display": "Vital signs",
                            "system": "http://loinc.org"
                        }
                    }
                ],
                "related": [
                    {
                        "type": "has-component",
                        "target": {
                            "reference": "Observation/6feaae62-9af9-4ad2-99d8-62450e7f552b"
                        }
                    },
                    {
                        "type": "has-component",
                        "target": {
                            "reference": "Observation/6eb0acc5-c020-484c-8612-c2b04a95144b"
                        }
                    }
                ]
            }
        },
        {
            "id": "Observation/3958a433-584f-444d-8258-e31039901065",
            "content": {
                "resourceType": "Observation",
                "name": {
                    "coding": [
                        {
                            "system": "http://loinc.org",
                            "code": "55418-8",
                            "display": "Weight and Height tracking panel"
                        }
                    ],
                    "text": "Weight and Height tracking panel"
                },
                "issued": "2010-05-06",
                "status": "final",
                "reliability": "ok",
                "extension": [
                    {
                        "url": "http://amida.com/fhir/Profile/extensions#observation-type",
                        "valueCoding": {
                            "code": "8716-3",
                            "display": "Vital signs",
                            "system": "http://loinc.org"
                        }
                    }
                ],
                "related": [
                    {
                        "type": "has-component",
                        "target": {
                            "reference": "Observation/03d457b0-ae83-4ba2-b7d9-87036258aafa"
                        }
                    }
                ]
            }
        },
        {
            "id": "Observation/510f0d74-b533-4a56-a04d-c30e597a0148",
            "content": {
                "resourceType": "Observation",
                "name": {
                    "coding": [
                        {
                            "system": "http://loinc.org",
                            "code": "55418-8",
                            "display": "Weight and Height tracking panel"
                        }
                    ],
                    "text": "Weight and Height tracking panel"
                },
                "issued": "2010-12-03",
                "status": "final",
                "reliability": "ok",
                "extension": [
                    {
                        "url": "http://amida.com/fhir/Profile/extensions#observation-type",
                        "valueCoding": {
                            "code": "8716-3",
                            "display": "Vital signs",
                            "system": "http://loinc.org"
                        }
                    }
                ],
                "related": [
                    {
                        "type": "has-component",
                        "target": {
                            "reference": "Observation/ae1ac41e-7018-4140-8bc1-382fdbf12b90"
                        }
                    }
                ]
            }
        },
        {
            "id": "Condition/0674c89e-0f9f-48d2-b4d2-e7de73a1a8f5",
            "content": {
                "resourceType": "Condition",
                "status": "confirmed",
                "onsetDate": "2010-03-31",
                "dateAsserted": "2010-03-31",
                "code": {
                    "coding": [
                        {
                            "system": "http://snomed.info/sct",
                            "code": "195979001",
                            "display": "Asthma unspecified"
                        }
                    ],
                    "text": "Asthma unspecified"
                }
            }
        },
        {
            "id": "Condition/8605e07e-45eb-4bef-b97e-550064464dfc",
            "content": {
                "resourceType": "Condition",
                "status": "confirmed",
                "onsetDate": "2010-03-31",
                "dateAsserted": "2010-03-31",
                "code": {
                    "coding": [
                        {
                            "system": "http://snomed.info/sct",
                            "code": "370202007",
                            "display": "Asthma causes daytime symptoms 1 to 2 times per month"
                        }
                    ],
                    "text": "Asthma causes daytime symptoms 1 to 2 times per month"
                }
            }
        },
        {
            "id": "Condition/b82e4aa5-c4a1-4098-9957-6f13274f4e8c",
            "content": {
                "resourceType": "Condition",
                "status": "confirmed",
                "onsetDate": "2010-03-31",
                "dateAsserted": "2010-03-31",
                "code": {
                    "coding": [
                        {
                            "system": "http://snomed.info/sct",
                            "code": "370205009",
                            "display": "Asthma causes night symptoms 1 to 2 times per month"
                        }
                    ],
                    "text": "Asthma causes night symptoms 1 to 2 times per month"
                }
            }
        },
        {
            "id": "Condition/987f588c-2d6f-4bc8-8915-6519ceff665d",
            "content": {
                "resourceType": "Condition",
                "status": "confirmed",
                "onsetDate": "2010-09-07",
                "dateAsserted": "2010-09-07",
                "code": {
                    "coding": [
                        {
                            "system": "http://snomed.info/sct",
                            "code": "370202007",
                            "display": "Asthma causes daytime symptoms 1 to 2 times per month"
                        }
                    ],
                    "text": "Asthma causes daytime symptoms 1 to 2 times per month"
                }
            }
        },
        {
            "id": "Condition/a864f4ab-0dbb-44f3-9149-452dbd0bac46",
            "content": {
                "resourceType": "Condition",
                "status": "confirmed",
                "onsetDate": "2010-09-07",
                "dateAsserted": "2010-09-07",
                "code": {
                    "coding": [
                        {
                            "system": "http://snomed.info/sct",
                            "code": "370205009",
                            "display": "Asthma causes night symptoms 1 to 2 times per month"
                        }
                    ],
                    "text": "Asthma causes night symptoms 1 to 2 times per month"
                }
            }
        },
        {
            "id": "Condition/e5d5332a-8bc8-4baa-9145-d7887fe5cf65",
            "content": {
                "resourceType": "Condition",
                "status": "confirmed",
                "onsetDate": "2010-11-07",
                "dateAsserted": "2010-11-07",
                "code": {
                    "coding": [
                        {
                            "system": "http://snomed.info/sct",
                            "code": "427295004",
                            "display": "Moderate persistent asthma"
                        }
                    ],
                    "text": "Moderate persistent asthma"
                }
            }
        },
        {
            "id": "Condition/48424329-f4ce-4f32-926b-0a495187c858",
            "content": {
                "resourceType": "Condition",
                "status": "confirmed",
                "onsetDate": "2010-12-03",
                "dateAsserted": "2010-12-03",
                "code": {
                    "coding": [
                        {
                            "system": "http://snomed.info/sct",
                            "code": "363746003",
                            "display": "Acute pharyngitis"
                        }
                    ],
                    "text": "Acute pharyngitis"
                }
            }
        },
        {
            "id": "Observation/c81b0b76-01ac-4023-8974-ea52128767c1",
            "content": {
                "resourceType": "Observation",
                "name": {
                    "coding": [
                        {
                            "system": "http://loinc.org",
                            "code": "31971-5",
                            "display": "S pyo Ag XXX Ql"
                        }
                    ],
                    "text": "S pyo Ag XXX Ql"
                },
                "issued": "2010-12-03",
                "status": "final",
                "reliability": "ok",
                "extension": [
                    {
                        "url": "http://amida.com/fhir/Profile/extensions#observation-type",
                        "valueCoding": {
                            "code": "11502-2",
                            "display": "Laboratory report",
                            "system": "http://loinc.org"
                        }
                    }
                ],
                "interpretation": {
                    "coding": [
                        {
                            "system": "http://hl7.org/fhir/v2/0078",
                            "code": "N",
                            "display": "Normal"
                        }
                    ],
                    "text": "Normal"
                },
                "referenceRange": [
                    {
                        "meaning": {
                            "coding": [
                                {
                                    "system": "http://hl7.org/fhir/referencerange-meaning",
                                    "code": "normal",
                                    "display": "Normal Range"
                                }
                            ],
                            "text": "Normal Range"
                        },
                        "text": "NA"
                    }
                ]
            }
        },
        {
            "id": "Observation/fa5027cc-d5b9-439b-8ab6-bef50897bd99",
            "content": {
                "resourceType": "Observation",
                "name": {
                    "coding": [
                        {
                            "system": "http://snomed.info/sct",
                            "code": "269934003",
                            "display": "Microbiology"
                        }
                    ],
                    "text": "Microbiology"
                },
                "status": "final",
                "reliability": "ok",
                "related": [
                    {
                        "type": "has-component",
                        "target": {
                            "reference": "Observation/c81b0b76-01ac-4023-8974-ea52128767c1"
                        }
                    }
                ],
                "extension": [
                    {
                        "url": "http://amida.com/fhir/Profile/extensions#observation-type",
                        "valueCoding": {
                            "code": "11502-2",
                            "display": "Laboratory report",
                            "system": "http://loinc.org"
                        }
                    }
                ]
            }
        },
        {
            "id": "MedicationPrescription/2a624584-d69e-47c3-a67d-99b1fb454f05",
            "content": {
                "resourceType": "MedicationPrescription",
                "status": "active",
                "dateWritten": "2010-03-31",
                "dosageInstruction": [
                    {
                        "timingPeriod": {
                            "start": "2010-03-31"
                        }
                    }
                ],
                "contained": [
                    {
                        "id": "med",
                        "resourceType": "Medication",
                        "name": "salmeterol 0.05 MG/ACTUAT Inhalant Powder",
                        "code": {
                            "coding": [
                                {
                                    "system": "http://www.nlm.nih.gov/research/umls/rxnorm",
                                    "code": "318142",
                                    "display": "salmeterol 0.05 MG/ACTUAT Inhalant Powder"
                                }
                            ],
                            "text": "salmeterol 0.05 MG/ACTUAT Inhalant Powder"
                        }
                    }
                ],
                "medication": {
                    "reference": "#med",
                    "display": "salmeterol 0.05 MG/ACTUAT Inhalant Powder"
                }
            }
        },
        {
            "id": "MedicationAdministration/f00c6e81-242c-48ef-856a-4f9b33ff83ae",
            "content": {
                "resourceType": "MedicationAdministration",
                "status": "completed",
                "practitioner": {
                    "reference": "Practitioner/unknown",
                    "display": "Unknown"
                },
                "whenGiven": {
                    "start": "2010-03-31"
                },
                "dosage": [
                    {
                        "timingPeriod": {
                            "start": "2010-03-31"
                        }
                    }
                ],
                "prescription": {
                    "reference": "MedicationPrescription/2a624584-d69e-47c3-a67d-99b1fb454f05"
                },
                "contained": [
                    {
                        "id": "med",
                        "resourceType": "Medication",
                        "name": "salmeterol 0.05 MG/ACTUAT Inhalant Powder",
                        "code": {
                            "coding": [
                                {
                                    "system": "http://www.nlm.nih.gov/research/umls/rxnorm",
                                    "code": "318142",
                                    "display": "salmeterol 0.05 MG/ACTUAT Inhalant Powder"
                                }
                            ],
                            "text": "salmeterol 0.05 MG/ACTUAT Inhalant Powder"
                        }
                    }
                ],
                "medication": {
                    "reference": "#med",
                    "display": "salmeterol 0.05 MG/ACTUAT Inhalant Powder"
                }
            }
        },
        {
            "id": "MedicationPrescription/c24113f0-3818-43f3-9054-057353ec60cc",
            "content": {
                "resourceType": "MedicationPrescription",
                "status": "active",
                "dateWritten": "2010-03-31",
                "dosageInstruction": [
                    {
                        "timingPeriod": {
                            "start": "2010-03-31"
                        }
                    }
                ],
                "contained": [
                    {
                        "id": "med",
                        "resourceType": "Medication",
                        "name": "Albuterol 0.83 MG/ML Inhalant Solution",
                        "code": {
                            "coding": [
                                {
                                    "system": "http://www.nlm.nih.gov/research/umls/rxnorm",
                                    "code": "630208",
                                    "display": "Albuterol 0.83 MG/ML Inhalant Solution"
                                }
                            ],
                            "text": "Albuterol 0.83 MG/ML Inhalant Solution"
                        }
                    }
                ],
                "medication": {
                    "reference": "#med",
                    "display": "Albuterol 0.83 MG/ML Inhalant Solution"
                }
            }
        },
        {
            "id": "MedicationAdministration/1731fc4a-ef96-41ec-ac7b-1a120a0deb6b",
            "content": {
                "resourceType": "MedicationAdministration",
                "status": "completed",
                "practitioner": {
                    "reference": "Practitioner/unknown",
                    "display": "Unknown"
                },
                "whenGiven": {
                    "start": "2010-03-31"
                },
                "dosage": [
                    {
                        "timingPeriod": {
                            "start": "2010-03-31"
                        }
                    }
                ],
                "prescription": {
                    "reference": "MedicationPrescription/c24113f0-3818-43f3-9054-057353ec60cc"
                },
                "contained": [
                    {
                        "id": "med",
                        "resourceType": "Medication",
                        "name": "Albuterol 0.83 MG/ML Inhalant Solution",
                        "code": {
                            "coding": [
                                {
                                    "system": "http://www.nlm.nih.gov/research/umls/rxnorm",
                                    "code": "630208",
                                    "display": "Albuterol 0.83 MG/ML Inhalant Solution"
                                }
                            ],
                            "text": "Albuterol 0.83 MG/ML Inhalant Solution"
                        }
                    }
                ],
                "medication": {
                    "reference": "#med",
                    "display": "Albuterol 0.83 MG/ML Inhalant Solution"
                }
            }
        },
        {
            "id": "MedicationPrescription/a2efcaf6-67a4-44a5-b81d-d5229bb43568",
            "content": {
                "resourceType": "MedicationPrescription",
                "status": "active",
                "dateWritten": "2010-11-07",
                "dosageInstruction": [
                    {
                        "timingPeriod": {
                            "start": "2010-11-07"
                        }
                    }
                ],
                "contained": [
                    {
                        "id": "med",
                        "resourceType": "Medication",
                        "name": "Cromolyn Sodium 20 MG/ML Nasal Solution",
                        "code": {
                            "coding": [
                                {
                                    "system": "http://www.nlm.nih.gov/research/umls/rxnorm",
                                    "code": "831303",
                                    "display": "Cromolyn Sodium 20 MG/ML Nasal Solution"
                                }
                            ],
                            "text": "Cromolyn Sodium 20 MG/ML Nasal Solution"
                        }
                    }
                ],
                "medication": {
                    "reference": "#med",
                    "display": "Cromolyn Sodium 20 MG/ML Nasal Solution"
                }
            }
        },
        {
            "id": "MedicationAdministration/755b4d7c-b903-4c56-9ee6-8c2cdca60a62",
            "content": {
                "resourceType": "MedicationAdministration",
                "status": "completed",
                "practitioner": {
                    "reference": "Practitioner/unknown",
                    "display": "Unknown"
                },
                "whenGiven": {
                    "start": "2010-11-07"
                },
                "dosage": [
                    {
                        "timingPeriod": {
                            "start": "2010-11-07"
                        }
                    }
                ],
                "prescription": {
                    "reference": "MedicationPrescription/a2efcaf6-67a4-44a5-b81d-d5229bb43568"
                },
                "contained": [
                    {
                        "id": "med",
                        "resourceType": "Medication",
                        "name": "Cromolyn Sodium 20 MG/ML Nasal Solution",
                        "code": {
                            "coding": [
                                {
                                    "system": "http://www.nlm.nih.gov/research/umls/rxnorm",
                                    "code": "831303",
                                    "display": "Cromolyn Sodium 20 MG/ML Nasal Solution"
                                }
                            ],
                            "text": "Cromolyn Sodium 20 MG/ML Nasal Solution"
                        }
                    }
                ],
                "medication": {
                    "reference": "#med",
                    "display": "Cromolyn Sodium 20 MG/ML Nasal Solution"
                }
            }
        },
        {
            "id": "MedicationPrescription/1cd32ac7-2f83-47cd-8f09-6a7cf2682742",
            "content": {
                "resourceType": "MedicationPrescription",
                "status": "active",
                "dateWritten": "2010-12-03",
                "dosageInstruction": [
                    {
                        "timingPeriod": {
                            "start": "2010-12-03"
                        }
                    }
                ],
                "contained": [
                    {
                        "id": "med",
                        "resourceType": "Medication",
                        "name": "cefpodoxime 200 MG Oral Tablet",
                        "code": {
                            "coding": [
                                {
                                    "system": "http://www.nlm.nih.gov/research/umls/rxnorm",
                                    "code": "309078",
                                    "display": "cefpodoxime 200 MG Oral Tablet"
                                }
                            ],
                            "text": "cefpodoxime 200 MG Oral Tablet"
                        }
                    }
                ],
                "medication": {
                    "reference": "#med",
                    "display": "cefpodoxime 200 MG Oral Tablet"
                }
            }
        },
        {
            "id": "MedicationAdministration/a7dd4e32-c952-4c32-ba81-f499bd697cb9",
            "content": {
                "resourceType": "MedicationAdministration",
                "status": "completed",
                "practitioner": {
                    "reference": "Practitioner/unknown",
                    "display": "Unknown"
                },
                "whenGiven": {
                    "start": "2010-12-03"
                },
                "dosage": [
                    {
                        "timingPeriod": {
                            "start": "2010-12-03"
                        }
                    }
                ],
                "prescription": {
                    "reference": "MedicationPrescription/1cd32ac7-2f83-47cd-8f09-6a7cf2682742"
                },
                "contained": [
                    {
                        "id": "med",
                        "resourceType": "Medication",
                        "name": "cefpodoxime 200 MG Oral Tablet",
                        "code": {
                            "coding": [
                                {
                                    "system": "http://www.nlm.nih.gov/research/umls/rxnorm",
                                    "code": "309078",
                                    "display": "cefpodoxime 200 MG Oral Tablet"
                                }
                            ],
                            "text": "cefpodoxime 200 MG Oral Tablet"
                        }
                    }
                ],
                "medication": {
                    "reference": "#med",
                    "display": "cefpodoxime 200 MG Oral Tablet"
                }
            }
        }
    ]
}