{
    "resourceType": "Bundle",
    "total": 39,
    "entry": [
        {
            "resource": {
                "id": "Patient/0",
                "resourceType": "Patient",
                "identifier": [
                    {
                        "system": "http://www.midea-tecg.com",
                        "value": "JOE_DOE_IDENTIFIER"
                    }
                ],
                "name": [
                    {
                        "family": [
                            "DOE"
                        ],
                        "given": [
                            "JOE"
                        ]
                    }
                ]
            }
        },
        {
            "resource": {
                "id": "AllergyIntolerance/1",
                "resourceType": "AllergyIntolerance",
                "criticality": "low",
                "recordedDate": "2010-03-31",
                "status": "confirmed",
                "substance": {
                    "coding": [
                        {
                            "system": "http://fdasis.nlm.nih.gov",
                            "code": "291P45F896",
                            "display": "Eggs"
                        }
                    ],
                    "text": "Eggs"
                },
                "subject": {
                    "reference": "Patient/0",
                    "display": "DOE, JOE"
                }
            }
        },
        {
            "resource": {
                "id": "AllergyIntolerance/2",
                "resourceType": "AllergyIntolerance",
                "criticality": "medium",
                "recordedDate": "2010-03-31",
                "status": "confirmed",
                "substance": {
                    "coding": [
                        {
                            "code": "N0000006691",
                            "display": "Codeine"
                        }
                    ],
                    "text": "Codeine"
                },
                "subject": {
                    "reference": "Patient/0",
                    "display": "DOE, JOE"
                }
            }
        },
        {
            "resource": {
                "id": "AllergyIntolerance/3",
                "resourceType": "AllergyIntolerance",
                "criticality": "low",
                "recordedDate": "2010-03-31",
                "status": "confirmed",
                "substance": {
                    "coding": [
                        {
                            "system": "http://www.nlm.nih.gov/research/umls/rxnorm",
                            "code": "808917",
                            "display": "Fosfomycin 33.3 MG/ML Oral Suspension"
                        }
                    ],
                    "text": "Fosfomycin 33.3 MG/ML Oral Suspension"
                },
                "subject": {
                    "reference": "Patient/0",
                    "display": "DOE, JOE"
                }
            }
        },
        {
            "resource": {
                "id": "Observation/4",
                "resourceType": "Observation",
                "code": {
                    "coding": [
                        {
                            "system": "http://loinc.org",
                            "code": "8462-4",
                            "display": "BP Diastolic"
                        }
                    ],
                    "text": "BP Diastolic"
                },
                "valueQuantity": {
                    "value": 55,
                    "units": "mm[Hg]",
                    "code": "mm[Hg]",
                    "system": "http://unitsofmeasure.org"
                },
                "issued": "2010-03-31",
                "status": "final",
                "reliability": "ok",
                "subject": {
                    "reference": "Patient/0",
                    "display": "DOE, JOE"
                }
            }
        },
        {
            "resource": {
                "id": "Observation/5",
                "resourceType": "Observation",
                "code": {
                    "coding": [
                        {
                            "system": "http://loinc.org",
                            "code": "8480-6",
                            "display": "BP Systolic"
                        }
                    ],
                    "text": "BP Systolic"
                },
                "valueQuantity": {
                    "value": 96,
                    "units": "mm[Hg]",
                    "code": "mm[Hg]",
                    "system": "http://unitsofmeasure.org"
                },
                "issued": "2010-03-31",
                "status": "final",
                "reliability": "ok",
                "subject": {
                    "reference": "Patient/0",
                    "display": "DOE, JOE"
                }
            }
        },
        {
            "resource": {
                "id": "Observation/6",
                "resourceType": "Observation",
                "code": {
                    "coding": [
                        {
                            "system": "http://loinc.org",
                            "code": "39156-5",
                            "display": "BMI"
                        }
                    ],
                    "text": "BMI"
                },
                "valueQuantity": {
                    "value": 16.3,
                    "units": "kg/m2",
                    "code": "kg/m2",
                    "system": "http://unitsofmeasure.org"
                },
                "issued": "2010-05-06",
                "status": "final",
                "reliability": "ok",
                "subject": {
                    "reference": "Patient/0",
                    "display": "DOE, JOE"
                }
            }
        },
        {
            "resource": {
                "id": "Observation/7",
                "resourceType": "Observation",
                "code": {
                    "coding": [
                        {
                            "system": "http://loinc.org",
                            "code": "8462-4",
                            "display": "BP Diastolic"
                        }
                    ],
                    "text": "BP Diastolic"
                },
                "valueQuantity": {
                    "value": 56,
                    "units": "mm[Hg]",
                    "code": "mm[Hg]",
                    "system": "http://unitsofmeasure.org"
                },
                "issued": "2010-09-07",
                "status": "final",
                "reliability": "ok",
                "subject": {
                    "reference": "Patient/0",
                    "display": "DOE, JOE"
                }
            }
        },
        {
            "resource": {
                "id": "Observation/8",
                "resourceType": "Observation",
                "code": {
                    "coding": [
                        {
                            "system": "http://loinc.org",
                            "code": "8480-6",
                            "display": "BP Systolic"
                        }
                    ],
                    "text": "BP Systolic"
                },
                "valueQuantity": {
                    "value": 98,
                    "units": "mm[Hg]",
                    "code": "mm[Hg]",
                    "system": "http://unitsofmeasure.org"
                },
                "issued": "2010-09-07",
                "status": "final",
                "reliability": "ok",
                "subject": {
                    "reference": "Patient/0",
                    "display": "DOE, JOE"
                }
            }
        },
        {
            "resource": {
                "id": "Observation/9",
                "resourceType": "Observation",
                "code": {
                    "coding": [
                        {
                            "system": "http://loinc.org",
                            "code": "39156-5",
                            "display": "BMI"
                        }
                    ],
                    "text": "BMI"
                },
                "valueQuantity": {
                    "value": 16.9,
                    "units": "kg/m2",
                    "code": "kg/m2",
                    "system": "http://unitsofmeasure.org"
                },
                "issued": "2010-12-03",
                "status": "final",
                "reliability": "ok",
                "subject": {
                    "reference": "Patient/0",
                    "display": "DOE, JOE"
                }
            }
        },
        {
            "resource": {
                "id": "Observation/10",
                "resourceType": "Observation",
                "code": {
                    "coding": [
                        {
                            "system": "http://loinc.org",
                            "code": "35094-2",
                            "display": "Blood pressure panel"
                        }
                    ],
                    "text": "Blood pressure panel"
                },
                "issued": "2010-03-31",
                "status": "final",
                "reliability": "ok",
                "related": [
                    {
                        "type": "has-component",
                        "target": {
                            "reference": "Observation/4"
                        }
                    },
                    {
                        "type": "has-component",
                        "target": {
                            "reference": "Observation/5"
                        }
                    }
                ],
                "subject": {
                    "reference": "Patient/0",
                    "display": "DOE, JOE"
                }
            }
        },
        {
            "resource": {
                "id": "Observation/11",
                "resourceType": "Observation",
                "code": {
                    "coding": [
                        {
                            "system": "http://loinc.org",
                            "code": "35094-2",
                            "display": "Blood pressure panel"
                        }
                    ],
                    "text": "Blood pressure panel"
                },
                "issued": "2010-09-07",
                "status": "final",
                "reliability": "ok",
                "related": [
                    {
                        "type": "has-component",
                        "target": {
                            "reference": "Observation/7"
                        }
                    },
                    {
                        "type": "has-component",
                        "target": {
                            "reference": "Observation/8"
                        }
                    }
                ],
                "subject": {
                    "reference": "Patient/0",
                    "display": "DOE, JOE"
                }
            }
        },
        {
            "resource": {
                "id": "Observation/12",
                "resourceType": "Observation",
                "code": {
                    "coding": [
                        {
                            "system": "http://loinc.org",
                            "code": "55418-8",
                            "display": "Weight and Height tracking panel"
                        }
                    ],
                    "text": "Weight and Height tracking panel"
                },
                "issued": "2010-05-06",
                "status": "final",
                "reliability": "ok",
                "related": [
                    {
                        "type": "has-component",
                        "target": {
                            "reference": "Observation/6"
                        }
                    }
                ],
                "subject": {
                    "reference": "Patient/0",
                    "display": "DOE, JOE"
                }
            }
        },
        {
            "resource": {
                "id": "Observation/13",
                "resourceType": "Observation",
                "code": {
                    "coding": [
                        {
                            "system": "http://loinc.org",
                            "code": "55418-8",
                            "display": "Weight and Height tracking panel"
                        }
                    ],
                    "text": "Weight and Height tracking panel"
                },
                "issued": "2010-12-03",
                "status": "final",
                "reliability": "ok",
                "related": [
                    {
                        "type": "has-component",
                        "target": {
                            "reference": "Observation/9"
                        }
                    }
                ],
                "subject": {
                    "reference": "Patient/0",
                    "display": "DOE, JOE"
                }
            }
        },
        {
            "resource": {
                "id": "Condition/14",
                "resourceType": "Condition",
                "status": "confirmed",
                "onsetDateTime": "2010-03-31",
                "dateAsserted": "2010-03-31",
                "code": {
                    "coding": [
                        {
                            "system": "http://snomed.info/sct",
                            "code": "195979001",
                            "display": "Asthma unspecified"
                        }
                    ],
                    "text": "Asthma unspecified"
                },
                "subject": {
                    "reference": "Patient/0",
                    "display": "DOE, JOE"
                }
            }
        },
        {
            "resource": {
                "id": "Condition/15",
                "resourceType": "Condition",
                "status": "confirmed",
                "onsetDateTime": "2010-03-31",
                "dateAsserted": "2010-03-31",
                "code": {
                    "coding": [
                        {
                            "system": "http://snomed.info/sct",
                            "code": "370202007",
                            "display": "Asthma causes daytime symptoms 1 to 2 times per month"
                        }
                    ],
                    "text": "Asthma causes daytime symptoms 1 to 2 times per month"
                },
                "subject": {
                    "reference": "Patient/0",
                    "display": "DOE, JOE"
                }
            }
        },
        {
            "resource": {
                "id": "Condition/16",
                "resourceType": "Condition",
                "status": "confirmed",
                "onsetDateTime": "2010-03-31",
                "dateAsserted": "2010-03-31",
                "code": {
                    "coding": [
                        {
                            "system": "http://snomed.info/sct",
                            "code": "370205009",
                            "display": "Asthma causes night symptoms 1 to 2 times per month"
                        }
                    ],
                    "text": "Asthma causes night symptoms 1 to 2 times per month"
                },
                "subject": {
                    "reference": "Patient/0",
                    "display": "DOE, JOE"
                }
            }
        },
        {
            "resource": {
                "id": "Condition/17",
                "resourceType": "Condition",
                "status": "confirmed",
                "onsetDateTime": "2010-09-07",
                "dateAsserted": "2010-09-07",
                "code": {
                    "coding": [
                        {
                            "system": "http://snomed.info/sct",
                            "code": "370202007",
                            "display": "Asthma causes daytime symptoms 1 to 2 times per month"
                        }
                    ],
                    "text": "Asthma causes daytime symptoms 1 to 2 times per month"
                },
                "subject": {
                    "reference": "Patient/0",
                    "display": "DOE, JOE"
                }
            }
        },
        {
            "resource": {
                "id": "Condition/18",
                "resourceType": "Condition",
                "status": "confirmed",
                "onsetDateTime": "2010-09-07",
                "dateAsserted": "2010-09-07",
                "code": {
                    "coding": [
                        {
                            "system": "http://snomed.info/sct",
                            "code": "370205009",
                            "display": "Asthma causes night symptoms 1 to 2 times per month"
                        }
                    ],
                    "text": "Asthma causes night symptoms 1 to 2 times per month"
                },
                "subject": {
                    "reference": "Patient/0",
                    "display": "DOE, JOE"
                }
            }
        },
        {
            "resource": {
                "id": "Condition/19",
                "resourceType": "Condition",
                "status": "confirmed",
                "onsetDateTime": "2010-11-07",
                "dateAsserted": "2010-11-07",
                "code": {
                    "coding": [
                        {
                            "system": "http://snomed.info/sct",
                            "code": "427295004",
                            "display": "Moderate persistent asthma"
                        }
                    ],
                    "text": "Moderate persistent asthma"
                },
                "subject": {
                    "reference": "Patient/0",
                    "display": "DOE, JOE"
                }
            }
        },
        {
            "resource": {
                "id": "Condition/20",
                "resourceType": "Condition",
                "status": "confirmed",
                "onsetDateTime": "2010-12-03",
                "dateAsserted": "2010-12-03",
                "code": {
                    "coding": [
                        {
                            "system": "http://snomed.info/sct",
                            "code": "363746003",
                            "display": "Acute pharyngitis"
                        }
                    ],
                    "text": "Acute pharyngitis"
                },
                "subject": {
                    "reference": "Patient/0",
                    "display": "DOE, JOE"
                }
            }
        },
        {
            "resource": {
                "id": "Observation/21",
                "resourceType": "Observation",
                "code": {
                    "coding": [
                        {
                            "system": "http://loinc.org",
                            "code": "31971-5",
                            "display": "S pyo Ag XXX Ql"
                        }
                    ],
                    "text": "S pyo Ag XXX Ql"
                },
                "issued": "2010-12-03",
                "status": "final",
                "reliability": "ok",
                "interpretation": {
                    "coding": [
                        {
                            "system": "http://hl7.org/fhir/v2/0078",
                            "code": "N",
                            "display": "Normal"
                        }
                    ],
                    "text": "Normal"
                },
                "referenceRange": [
                    {
                        "meaning": {
                            "coding": [
                                {
                                    "system": "http://hl7.org/fhir/referencerange-meaning",
                                    "code": "normal",
                                    "display": "Normal Range"
                                }
                            ],
                            "text": "Normal Range"
                        },
                        "text": "NA"
                    }
                ],
                "subject": {
                    "reference": "Patient/0",
                    "display": "DOE, JOE"
                }
            }
        },
        {
            "resource": {
                "id": "Observation/22",
                "resourceType": "Observation",
                "code": {
                    "coding": [
                        {
                            "system": "http://snomed.info/sct",
                            "code": "269934003",
                            "display": "Microbiology"
                        }
                    ],
                    "text": "Microbiology"
                },
                "status": "final",
                "reliability": "ok",
                "related": [
                    {
                        "type": "has-component",
                        "target": {
                            "reference": "Observation/21"
                        }
                    }
                ],
                "subject": {
                    "reference": "Patient/0",
                    "display": "DOE, JOE"
                }
            }
        },
        {
            "resource": {
                "id": "MedicationPrescription/23",
                "resourceType": "MedicationPrescription",
                "status": "active",
                "dateWritten": "2010-03-31",
                "dosageInstruction": [
                    {
                        "timingPeriod": {
                            "start": "2010-03-31"
                        }
                    }
                ],
                "medication": {
                    "reference": "Medication/31",
                    "display": "Long acting inhaled beta 2 agonist + salmeterol 0.05 MG/ACTUAT Inhalant Powder"
                },
                "patient": {
                    "reference": "Patient/0",
                    "display": "DOE, JOE"
                }
            }
        },
        {
            "resource": {
                "id": "MedicationAdministration/24",
                "resourceType": "MedicationAdministration",
                "status": "completed",
                "prescription": {
                    "reference": "MedicationPrescription/23"
                },
                "effectiveTimePeriod": {
                    "start": "2010-03-31"
                },
                "medication": {
                    "reference": "Medication/32",
                    "display": "Long acting inhaled beta 2 agonist + salmeterol 0.05 MG/ACTUAT Inhalant Powder"
                },
                "patient": {
                    "reference": "Patient/0",
                    "display": "DOE, JOE"
                }
            }
        },
        {
            "resource": {
                "id": "MedicationPrescription/25",
                "resourceType": "MedicationPrescription",
                "status": "active",
                "dateWritten": "2010-03-31",
                "dosageInstruction": [
                    {
                        "timingPeriod": {
                            "start": "2010-03-31"
                        }
                    }
                ],
                "medication": {
                    "reference": "Medication/33",
                    "display": "Short acting beta 2 agonist + Albuterol 0.83 MG/ML Inhalant Solution"
                },
                "patient": {
                    "reference": "Patient/0",
                    "display": "DOE, JOE"
                }
            }
        },
        {
            "resource": {
                "id": "MedicationAdministration/26",
                "resourceType": "MedicationAdministration",
                "status": "completed",
                "prescription": {
                    "reference": "MedicationPrescription/25"
                },
                "effectiveTimePeriod": {
                    "start": "2010-03-31"
                },
                "medication": {
                    "reference": "Medication/34",
                    "display": "Short acting beta 2 agonist + Albuterol 0.83 MG/ML Inhalant Solution"
                },
                "patient": {
                    "reference": "Patient/0",
                    "display": "DOE, JOE"
                }
            }
        },
        {
            "resource": {
                "id": "MedicationPrescription/27",
                "resourceType": "MedicationPrescription",
                "status": "active",
                "dateWritten": "2010-11-07",
                "dosageInstruction": [
                    {
                        "timingPeriod": {
                            "start": "2010-11-07"
                        }
                    }
                ],
                "medication": {
                    "reference": "Medication/35",
                    "display": "Mast Cell stabilizers + Cromolyn Sodium 20 MG/ML Nasal Solution"
                },
                "patient": {
                    "reference": "Patient/0",
                    "display": "DOE, JOE"
                }
            }
        },
        {
            "resource": {
                "id": "MedicationAdministration/28",
                "resourceType": "MedicationAdministration",
                "status": "completed",
                "prescription": {
                    "reference": "MedicationPrescription/27"
                },
                "effectiveTimePeriod": {
                    "start": "2010-11-07"
                },
                "medication": {
                    "reference": "Medication/36",
                    "display": "Mast Cell stabilizers + Cromolyn Sodium 20 MG/ML Nasal Solution"
                },
                "patient": {
                    "reference": "Patient/0",
                    "display": "DOE, JOE"
                }
            }
        },
        {
            "resource": {
                "id": "MedicationPrescription/29",
                "resourceType": "MedicationPrescription",
                "status": "active",
                "dateWritten": "2010-12-03",
                "dosageInstruction": [
                    {
                        "timingPeriod": {
                            "start": "2010-12-03"
                        }
                    }
                ],
                "medication": {
                    "reference": "Medication/37",
                    "display": "3rd generation cephalosporins + cefpodoxime 200 MG Oral Tablet"
                },
                "patient": {
                    "reference": "Patient/0",
                    "display": "DOE, JOE"
                }
            }
        },
        {
            "resource": {
                "id": "MedicationAdministration/30",
                "resourceType": "MedicationAdministration",
                "status": "completed",
                "prescription": {
                    "reference": "MedicationPrescription/29"
                },
                "effectiveTimePeriod": {
                    "start": "2010-12-03"
                },
                "medication": {
                    "reference": "Medication/38",
                    "display": "3rd generation cephalosporins + cefpodoxime 200 MG Oral Tablet"
                },
                "patient": {
                    "reference": "Patient/0",
                    "display": "DOE, JOE"
                }
            }
        },
        {
            "resource": {
                "id": "Medication/31",
                "resourceType": "Medication",
                "name": "Long acting inhaled beta 2 agonist + salmeterol 0.05 MG/ACTUAT Inhalant Powder",
                "code": {
                    "coding": [
                        {
                            "system": "http://www.nlm.nih.gov/research/umls/rxnorm",
                            "code": "318142",
                            "display": "salmeterol 0.05 MG/ACTUAT Inhalant Powder"
                        }
                    ],
                    "text": "salmeterol 0.05 MG/ACTUAT Inhalant Powder"
                }
            }
        },
        {
            "resource": {
                "id": "Medication/32",
                "resourceType": "Medication",
                "name": "Long acting inhaled beta 2 agonist + salmeterol 0.05 MG/ACTUAT Inhalant Powder",
                "code": {
                    "coding": [
                        {
                            "system": "http://www.nlm.nih.gov/research/umls/rxnorm",
                            "code": "318142",
                            "display": "salmeterol 0.05 MG/ACTUAT Inhalant Powder"
                        }
                    ],
                    "text": "salmeterol 0.05 MG/ACTUAT Inhalant Powder"
                }
            }
        },
        {
            "resource": {
                "id": "Medication/33",
                "resourceType": "Medication",
                "name": "Short acting beta 2 agonist + Albuterol 0.83 MG/ML Inhalant Solution",
                "code": {
                    "coding": [
                        {
                            "system": "http://www.nlm.nih.gov/research/umls/rxnorm",
                            "code": "630208",
                            "display": "Albuterol 0.83 MG/ML Inhalant Solution"
                        }
                    ],
                    "text": "Albuterol 0.83 MG/ML Inhalant Solution"
                }
            }
        },
        {
            "resource": {
                "id": "Medication/34",
                "resourceType": "Medication",
                "name": "Short acting beta 2 agonist + Albuterol 0.83 MG/ML Inhalant Solution",
                "code": {
                    "coding": [
                        {
                            "system": "http://www.nlm.nih.gov/research/umls/rxnorm",
                            "code": "630208",
                            "display": "Albuterol 0.83 MG/ML Inhalant Solution"
                        }
                    ],
                    "text": "Albuterol 0.83 MG/ML Inhalant Solution"
                }
            }
        },
        {
            "resource": {
                "id": "Medication/35",
                "resourceType": "Medication",
                "name": "Mast Cell stabilizers + Cromolyn Sodium 20 MG/ML Nasal Solution",
                "code": {
                    "coding": [
                        {
                            "system": "http://www.nlm.nih.gov/research/umls/rxnorm",
                            "code": "831303",
                            "display": "Cromolyn Sodium 20 MG/ML Nasal Solution"
                        }
                    ],
                    "text": "Cromolyn Sodium 20 MG/ML Nasal Solution"
                }
            }
        },
        {
            "resource": {
                "id": "Medication/36",
                "resourceType": "Medication",
                "name": "Mast Cell stabilizers + Cromolyn Sodium 20 MG/ML Nasal Solution",
                "code": {
                    "coding": [
                        {
                            "system": "http://www.nlm.nih.gov/research/umls/rxnorm",
                            "code": "831303",
                            "display": "Cromolyn Sodium 20 MG/ML Nasal Solution"
                        }
                    ],
                    "text": "Cromolyn Sodium 20 MG/ML Nasal Solution"
                }
            }
        },
        {
            "resource": {
                "id": "Medication/37",
                "resourceType": "Medication",
                "name": "3rd generation cephalosporins + cefpodoxime 200 MG Oral Tablet",
                "code": {
                    "coding": [
                        {
                            "system": "http://www.nlm.nih.gov/research/umls/rxnorm",
                            "code": "309078",
                            "display": "cefpodoxime 200 MG Oral Tablet"
                        }
                    ],
                    "text": "cefpodoxime 200 MG Oral Tablet"
                }
            }
        },
        {
            "resource": {
                "id": "Medication/38",
                "resourceType": "Medication",
                "name": "3rd generation cephalosporins + cefpodoxime 200 MG Oral Tablet",
                "code": {
                    "coding": [
                        {
                            "system": "http://www.nlm.nih.gov/research/umls/rxnorm",
                            "code": "309078",
                            "display": "cefpodoxime 200 MG Oral Tablet"
                        }
                    ],
                    "text": "cefpodoxime 200 MG Oral Tablet"
                }
            }
        }
    ]
}