{
    "resourceType": "Bundle",
    "totalResults": 22,
    "entry": [
        {
            "id": "Observation/f1306fa3-bc8d-4771-b83d-ebc43798ef2f",
            "content": {
                "resourceType": "Observation",
                "name": {
                    "coding": [
                        {
                            "system": "http://loinc.org",
                            "code": "9279-1",
                            "display": "Respiratory Rate"
                        }
                    ],
                    "text": "Respiratory Rate"
                },
                "valueQuantity": {
                    "value": 0,
                    "units": "/min",
                    "code": "/min",
                    "system": "http://unitsofmeasure.org"
                },
                "issued": "2012-08-06",
                "status": "final",
                "reliability": "ok",
                "extension": [
                    {
                        "url": "http://amida.com/fhir/Profile/extensions#observation-type",
                        "valueCoding": {
                            "code": "8716-3",
                            "display": "Vital signs",
                            "system": "http://loinc.org"
                        }
                    }
                ]
            }
        },
        {
            "id": "Observation/a7d53bbb-3d33-477b-bba0-614b69b14adc",
            "content": {
                "resourceType": "Observation",
                "name": {
                    "coding": [
                        {
                            "system": "http://loinc.org",
                            "code": "8867-4",
                            "display": "Heart Rate"
                        }
                    ],
                    "text": "Heart Rate"
                },
                "valueQuantity": {
                    "value": 72,
                    "units": "/min",
                    "code": "/min",
                    "system": "http://unitsofmeasure.org"
                },
                "issued": "2012-08-06",
                "status": "final",
                "reliability": "ok",
                "extension": [
                    {
                        "url": "http://amida.com/fhir/Profile/extensions#observation-type",
                        "valueCoding": {
                            "code": "8716-3",
                            "display": "Vital signs",
                            "system": "http://loinc.org"
                        }
                    }
                ]
            }
        },
        {
            "id": "Observation/5e6e86e2-ef30-4ae1-bdc8-80542e537006",
            "content": {
                "resourceType": "Observation",
                "name": {
                    "coding": [
                        {
                            "system": "http://loinc.org",
                            "code": "8480-6",
                            "display": "Systolic BP"
                        }
                    ],
                    "text": "Systolic BP"
                },
                "valueQuantity": {
                    "value": 140,
                    "units": "mm[Hg]",
                    "code": "mm[Hg]",
                    "system": "http://unitsofmeasure.org"
                },
                "issued": "2012-08-06",
                "status": "final",
                "reliability": "ok",
                "extension": [
                    {
                        "url": "http://amida.com/fhir/Profile/extensions#observation-type",
                        "valueCoding": {
                            "code": "8716-3",
                            "display": "Vital signs",
                            "system": "http://loinc.org"
                        }
                    }
                ]
            }
        },
        {
            "id": "Observation/d688eb4d-c020-4ae2-8ba0-59d8fca63899",
            "content": {
                "resourceType": "Observation",
                "name": {
                    "coding": [
                        {
                            "system": "http://loinc.org",
                            "code": "8462-4",
                            "display": "Diastolic BP"
                        }
                    ],
                    "text": "Diastolic BP"
                },
                "valueQuantity": {
                    "value": 96,
                    "units": "mm[Hg]",
                    "code": "mm[Hg]",
                    "system": "http://unitsofmeasure.org"
                },
                "issued": "2012-08-06",
                "status": "final",
                "reliability": "ok",
                "extension": [
                    {
                        "url": "http://amida.com/fhir/Profile/extensions#observation-type",
                        "valueCoding": {
                            "code": "8716-3",
                            "display": "Vital signs",
                            "system": "http://loinc.org"
                        }
                    }
                ]
            }
        },
        {
            "id": "Observation/1818c5b0-b656-4194-bd7e-386523d00f19",
            "content": {
                "resourceType": "Observation",
                "name": {
                    "coding": [
                        {
                            "system": "http://loinc.org",
                            "code": "8310-5",
                            "display": "Body Temperature"
                        }
                    ],
                    "text": "Body Temperature"
                },
                "valueQuantity": {
                    "value": 98.4,
                    "units": "[degF]",
                    "code": "[degF]",
                    "system": "http://unitsofmeasure.org"
                },
                "issued": "2012-08-06",
                "status": "final",
                "reliability": "ok",
                "extension": [
                    {
                        "url": "http://amida.com/fhir/Profile/extensions#observation-type",
                        "valueCoding": {
                            "code": "8716-3",
                            "display": "Vital signs",
                            "system": "http://loinc.org"
                        }
                    }
                ]
            }
        },
        {
            "id": "Observation/d8bf6c3d-68b9-485b-8613-8f58b2001edb",
            "content": {
                "resourceType": "Observation",
                "name": {
                    "coding": [
                        {
                            "system": "http://loinc.org",
                            "code": "8302-2",
                            "display": "Height"
                        }
                    ],
                    "text": "Height"
                },
                "valueQuantity": {
                    "value": 64,
                    "units": "[in_us]",
                    "code": "[in_us]",
                    "system": "http://unitsofmeasure.org"
                },
                "issued": "2012-08-06",
                "status": "final",
                "reliability": "ok",
                "extension": [
                    {
                        "url": "http://amida.com/fhir/Profile/extensions#observation-type",
                        "valueCoding": {
                            "code": "8716-3",
                            "display": "Vital signs",
                            "system": "http://loinc.org"
                        }
                    }
                ]
            }
        },
        {
            "id": "Observation/37f22fa3-864d-47b5-a4ec-8682bfe0567b",
            "content": {
                "resourceType": "Observation",
                "name": {
                    "coding": [
                        {
                            "system": "http://loinc.org",
                            "code": "8287-5",
                            "display": "Head Circumference"
                        }
                    ],
                    "text": "Head Circumference"
                },
                "valueQuantity": {
                    "value": 0,
                    "units": "[in_us]",
                    "code": "[in_us]",
                    "system": "http://unitsofmeasure.org"
                },
                "issued": "2012-08-06",
                "status": "final",
                "reliability": "ok",
                "extension": [
                    {
                        "url": "http://amida.com/fhir/Profile/extensions#observation-type",
                        "valueCoding": {
                            "code": "8716-3",
                            "display": "Vital signs",
                            "system": "http://loinc.org"
                        }
                    }
                ]
            }
        },
        {
            "id": "Observation/95fbeadc-4613-41d9-9229-842db56588d6",
            "content": {
                "resourceType": "Observation",
                "name": {
                    "coding": [
                        {
                            "system": "http://loinc.org",
                            "code": "3141-9",
                            "display": "Weight Measured"
                        }
                    ],
                    "text": "Weight Measured"
                },
                "valueQuantity": {
                    "value": 192,
                    "units": "[lb_av]",
                    "code": "[lb_av]",
                    "system": "http://unitsofmeasure.org"
                },
                "issued": "2012-08-06",
                "status": "final",
                "reliability": "ok",
                "extension": [
                    {
                        "url": "http://amida.com/fhir/Profile/extensions#observation-type",
                        "valueCoding": {
                            "code": "8716-3",
                            "display": "Vital signs",
                            "system": "http://loinc.org"
                        }
                    }
                ]
            }
        },
        {
            "id": "Observation/c5c0c58c-3f76-4bef-941c-a9789cc39f2e",
            "content": {
                "resourceType": "Observation",
                "name": {
                    "coding": [
                        {
                            "system": "http://loinc.org",
                            "code": "39156-5",
                            "display": "BMI (Body Mass Index)"
                        }
                    ],
                    "text": "BMI (Body Mass Index)"
                },
                "valueQuantity": {
                    "value": 32.9531,
                    "units": "kg/m2",
                    "code": "kg/m2",
                    "system": "http://unitsofmeasure.org"
                },
                "issued": "2012-08-06",
                "status": "final",
                "reliability": "ok",
                "extension": [
                    {
                        "url": "http://amida.com/fhir/Profile/extensions#observation-type",
                        "valueCoding": {
                            "code": "8716-3",
                            "display": "Vital signs",
                            "system": "http://loinc.org"
                        }
                    }
                ]
            }
        },
        {
            "id": "Observation/61448fe7-d47d-4be4-ac9e-a4fa46c1b51d",
            "content": {
                "resourceType": "Observation",
                "name": {
                    "coding": [
                        {
                            "system": "http://loinc.org",
                            "code": "35094-2",
                            "display": "Blood pressure panel"
                        }
                    ],
                    "text": "Blood pressure panel"
                },
                "issued": "2012-08-06",
                "status": "final",
                "reliability": "ok",
                "extension": [
                    {
                        "url": "http://amida.com/fhir/Profile/extensions#observation-type",
                        "valueCoding": {
                            "code": "8716-3",
                            "display": "Vital signs",
                            "system": "http://loinc.org"
                        }
                    }
                ],
                "related": [
                    {
                        "type": "has-component",
                        "target": {
                            "reference": "Observation/5e6e86e2-ef30-4ae1-bdc8-80542e537006"
                        }
                    },
                    {
                        "type": "has-component",
                        "target": {
                            "reference": "Observation/d688eb4d-c020-4ae2-8ba0-59d8fca63899"
                        }
                    }
                ]
            }
        },
        {
            "id": "Observation/322664c6-06f2-45fe-90e6-7d7c573f3607",
            "content": {
                "resourceType": "Observation",
                "name": {
                    "coding": [
                        {
                            "system": "http://loinc.org",
                            "code": "55418-8",
                            "display": "Weight and Height tracking panel"
                        }
                    ],
                    "text": "Weight and Height tracking panel"
                },
                "issued": "2012-08-06",
                "status": "final",
                "reliability": "ok",
                "extension": [
                    {
                        "url": "http://amida.com/fhir/Profile/extensions#observation-type",
                        "valueCoding": {
                            "code": "8716-3",
                            "display": "Vital signs",
                            "system": "http://loinc.org"
                        }
                    }
                ],
                "related": [
                    {
                        "type": "has-component",
                        "target": {
                            "reference": "Observation/d8bf6c3d-68b9-485b-8613-8f58b2001edb"
                        }
                    },
                    {
                        "type": "has-component",
                        "target": {
                            "reference": "Observation/95fbeadc-4613-41d9-9229-842db56588d6"
                        }
                    },
                    {
                        "type": "has-component",
                        "target": {
                            "reference": "Observation/c5c0c58c-3f76-4bef-941c-a9789cc39f2e"
                        }
                    }
                ]
            }
        },
        {
            "id": "Condition/f62ba975-dcba-4caf-88fd-eb6e96cd19a8",
            "content": {
                "resourceType": "Condition",
                "status": "confirmed",
                "code": {
                    "coding": [
                        {
                            "system": "urn:oid:2.16.840.1.113883.6.103",
                            "code": "401.1",
                            "display": "Hypertension, benign"
                        }
                    ],
                    "text": "Hypertension, benign"
                }
            }
        },
        {
            "id": "Condition/d13e2d53-e2dc-4585-a15c-b61308b2980b",
            "content": {
                "resourceType": "Condition",
                "status": "confirmed",
                "code": {
                    "coding": [
                        {
                            "system": "urn:oid:2.16.840.1.113883.6.103",
                            "code": "272.2",
                            "display": "Hyperlipidemia, mixed"
                        }
                    ],
                    "text": "Hyperlipidemia, mixed"
                }
            }
        },
        {
            "id": "Condition/0fdc808b-f23e-423c-9501-bb7c6d112fbb",
            "content": {
                "resourceType": "Condition",
                "status": "confirmed",
                "code": {
                    "coding": [
                        {
                            "system": "urn:oid:2.16.840.1.113883.6.103",
                            "code": "250.00",
                            "display": "Diabetes II, uncomplicated"
                        }
                    ],
                    "text": "Diabetes II, uncomplicated"
                }
            }
        },
        {
            "id": "MedicationPrescription/61d850b8-23d2-4a3e-9bee-c8a382abeb53",
            "content": {
                "resourceType": "MedicationPrescription",
                "status": "active",
                "contained": [
                    {
                        "id": "med",
                        "resourceType": "Medication",
                        "name": "lisinopril 10 mg",
                        "code": {
                            "coding": [
                                {
                                    "system": "http://www.nlm.nih.gov/research/umls/rxnorm",
                                    "code": "314076",
                                    "display": "lisinopril 10 mg"
                                }
                            ],
                            "text": "lisinopril 10 mg"
                        }
                    }
                ],
                "medication": {
                    "reference": "#med",
                    "display": "lisinopril 10 mg"
                }
            }
        },
        {
            "id": "MedicationAdministration/b75de74f-0cd4-49b7-beb5-51177d90f297",
            "content": {
                "resourceType": "MedicationAdministration",
                "status": "completed",
                "practitioner": {
                    "reference": "Practitioner/unknown",
                    "display": "Unknown"
                },
                "prescription": {
                    "reference": "MedicationPrescription/61d850b8-23d2-4a3e-9bee-c8a382abeb53"
                },
                "contained": [
                    {
                        "id": "med",
                        "resourceType": "Medication",
                        "name": "lisinopril 10 mg",
                        "code": {
                            "coding": [
                                {
                                    "system": "http://www.nlm.nih.gov/research/umls/rxnorm",
                                    "code": "314076",
                                    "display": "lisinopril 10 mg"
                                }
                            ],
                            "text": "lisinopril 10 mg"
                        }
                    }
                ],
                "medication": {
                    "reference": "#med",
                    "display": "lisinopril 10 mg"
                }
            }
        },
        {
            "id": "MedicationPrescription/fbf9a211-33bd-40dc-9f2a-f3030b7a73c8",
            "content": {
                "resourceType": "MedicationPrescription",
                "status": "active",
                "contained": [
                    {
                        "id": "med",
                        "resourceType": "Medication",
                        "name": "glyBURIDE 5 mg",
                        "code": {
                            "coding": [
                                {
                                    "system": "http://www.nlm.nih.gov/research/umls/rxnorm",
                                    "code": "310537",
                                    "display": "glyBURIDE 5 mg"
                                }
                            ],
                            "text": "glyBURIDE 5 mg"
                        }
                    }
                ],
                "medication": {
                    "reference": "#med",
                    "display": "glyBURIDE 5 mg"
                }
            }
        },
        {
            "id": "MedicationAdministration/96b496dc-9671-459c-b094-44daa8a3d3c5",
            "content": {
                "resourceType": "MedicationAdministration",
                "status": "completed",
                "practitioner": {
                    "reference": "Practitioner/unknown",
                    "display": "Unknown"
                },
                "prescription": {
                    "reference": "MedicationPrescription/fbf9a211-33bd-40dc-9f2a-f3030b7a73c8"
                },
                "contained": [
                    {
                        "id": "med",
                        "resourceType": "Medication",
                        "name": "glyBURIDE 5 mg",
                        "code": {
                            "coding": [
                                {
                                    "system": "http://www.nlm.nih.gov/research/umls/rxnorm",
                                    "code": "310537",
                                    "display": "glyBURIDE 5 mg"
                                }
                            ],
                            "text": "glyBURIDE 5 mg"
                        }
                    }
                ],
                "medication": {
                    "reference": "#med",
                    "display": "glyBURIDE 5 mg"
                }
            }
        },
        {
            "id": "MedicationPrescription/24963586-b0b2-4523-877a-97ac8554a32f",
            "content": {
                "resourceType": "MedicationPrescription",
                "status": "active",
                "contained": [
                    {
                        "id": "med",
                        "resourceType": "Medication",
                        "name": "lovastatin 20 mg",
                        "code": {
                            "coding": [
                                {
                                    "system": "http://www.nlm.nih.gov/research/umls/rxnorm",
                                    "code": "197904",
                                    "display": "lovastatin 20 mg"
                                }
                            ],
                            "text": "lovastatin 20 mg"
                        }
                    }
                ],
                "medication": {
                    "reference": "#med",
                    "display": "lovastatin 20 mg"
                }
            }
        },
        {
            "id": "MedicationAdministration/bc13cb7b-7e55-4461-aa5f-01ae34a7e641",
            "content": {
                "resourceType": "MedicationAdministration",
                "status": "completed",
                "practitioner": {
                    "reference": "Practitioner/unknown",
                    "display": "Unknown"
                },
                "prescription": {
                    "reference": "MedicationPrescription/24963586-b0b2-4523-877a-97ac8554a32f"
                },
                "contained": [
                    {
                        "id": "med",
                        "resourceType": "Medication",
                        "name": "lovastatin 20 mg",
                        "code": {
                            "coding": [
                                {
                                    "system": "http://www.nlm.nih.gov/research/umls/rxnorm",
                                    "code": "197904",
                                    "display": "lovastatin 20 mg"
                                }
                            ],
                            "text": "lovastatin 20 mg"
                        }
                    }
                ],
                "medication": {
                    "reference": "#med",
                    "display": "lovastatin 20 mg"
                }
            }
        },
        {
            "id": "MedicationPrescription/e91b9c1d-b1b6-4b8c-970e-9d01bd38ac78",
            "content": {
                "resourceType": "MedicationPrescription",
                "status": "active",
                "dosageInstruction": [
                    {
                        "timingPeriod": {
                            "end": "2007-08-06"
                        }
                    }
                ],
                "contained": [
                    {
                        "id": "med",
                        "resourceType": "Medication",
                        "name": "metFORMIN 500 mg",
                        "code": {
                            "coding": [
                                {
                                    "system": "http://www.nlm.nih.gov/research/umls/rxnorm",
                                    "code": "861007",
                                    "display": "metFORMIN 500 mg"
                                }
                            ],
                            "text": "metFORMIN 500 mg"
                        }
                    }
                ],
                "medication": {
                    "reference": "#med",
                    "display": "metFORMIN 500 mg"
                }
            }
        },
        {
            "id": "MedicationAdministration/57f4c695-2cc0-4b12-acd3-30d4f3bd5b25",
            "content": {
                "resourceType": "MedicationAdministration",
                "status": "completed",
                "practitioner": {
                    "reference": "Practitioner/unknown",
                    "display": "Unknown"
                },
                "whenGiven": {
                    "end": "2007-08-06"
                },
                "dosage": [
                    {
                        "timingPeriod": {
                            "end": "2007-08-06"
                        }
                    }
                ],
                "prescription": {
                    "reference": "MedicationPrescription/e91b9c1d-b1b6-4b8c-970e-9d01bd38ac78"
                },
                "contained": [
                    {
                        "id": "med",
                        "resourceType": "Medication",
                        "name": "metFORMIN 500 mg",
                        "code": {
                            "coding": [
                                {
                                    "system": "http://www.nlm.nih.gov/research/umls/rxnorm",
                                    "code": "861007",
                                    "display": "metFORMIN 500 mg"
                                }
                            ],
                            "text": "metFORMIN 500 mg"
                        }
                    }
                ],
                "medication": {
                    "reference": "#med",
                    "display": "metFORMIN 500 mg"
                }
            }
        }
    ]
}