{
    "resourceType": "Bundle",
    "totalResults": 31,
    "entry": [
        {
            "id": "Patient/some-id-here-1987",
            "content": {
                "resourceType": "Patient",
                "identifier": [
                    {
                        "system": "http://www.midea-tecg.com",
                        "value": "JOE_DOE_IDENTIFIER"
                    }
                ],
                "name": [
                    {
                        "family": [
                            "DOE"
                        ],
                        "given": [
                            "JOE"
                        ]
                    }
                ]
            }
        },
        {
            "id": "Observation/82773764-5aac-481a-ba70-a241ce003170",
            "content": {
                "resourceType": "Observation",
                "name": {
                    "coding": [
                        {
                            "system": "http://loinc.org",
                            "code": "9279-1",
                            "display": "Respiratory Rate"
                        }
                    ],
                    "text": "Respiratory Rate"
                },
                "valueQuantity": {
                    "value": 0,
                    "units": "/min",
                    "code": "/min",
                    "system": "http://unitsofmeasure.org"
                },
                "issued": "2012-08-06",
                "status": "final",
                "reliability": "ok",
                "extension": [
                    {
                        "url": "http://amida.com/fhir/Profile/extensions#observation-type",
                        "valueCoding": {
                            "code": "8716-3",
                            "display": "Vital signs",
                            "system": "http://loinc.org"
                        }
                    }
                ],
                "subject": {
                    "reference": "Patient/some-id-here-1987",
                    "display": "DOE, JOE"
                }
            }
        },
        {
            "id": "Observation/eb15f5fd-8c1d-4d01-9857-c63883495797",
            "content": {
                "resourceType": "Observation",
                "name": {
                    "coding": [
                        {
                            "system": "http://loinc.org",
                            "code": "8867-4",
                            "display": "Heart Rate"
                        }
                    ],
                    "text": "Heart Rate"
                },
                "valueQuantity": {
                    "value": 72,
                    "units": "/min",
                    "code": "/min",
                    "system": "http://unitsofmeasure.org"
                },
                "issued": "2012-08-06",
                "status": "final",
                "reliability": "ok",
                "extension": [
                    {
                        "url": "http://amida.com/fhir/Profile/extensions#observation-type",
                        "valueCoding": {
                            "code": "8716-3",
                            "display": "Vital signs",
                            "system": "http://loinc.org"
                        }
                    }
                ],
                "subject": {
                    "reference": "Patient/some-id-here-1987",
                    "display": "DOE, JOE"
                }
            }
        },
        {
            "id": "Observation/18a5ff8f-77ec-4222-bb01-077417ab5eb1",
            "content": {
                "resourceType": "Observation",
                "name": {
                    "coding": [
                        {
                            "system": "http://loinc.org",
                            "code": "8480-6",
                            "display": "Systolic BP"
                        }
                    ],
                    "text": "Systolic BP"
                },
                "valueQuantity": {
                    "value": 140,
                    "units": "mm[Hg]",
                    "code": "mm[Hg]",
                    "system": "http://unitsofmeasure.org"
                },
                "issued": "2012-08-06",
                "status": "final",
                "reliability": "ok",
                "extension": [
                    {
                        "url": "http://amida.com/fhir/Profile/extensions#observation-type",
                        "valueCoding": {
                            "code": "8716-3",
                            "display": "Vital signs",
                            "system": "http://loinc.org"
                        }
                    }
                ],
                "subject": {
                    "reference": "Patient/some-id-here-1987",
                    "display": "DOE, JOE"
                }
            }
        },
        {
            "id": "Observation/8b67e53f-d2a8-4403-b074-cb99117d54de",
            "content": {
                "resourceType": "Observation",
                "name": {
                    "coding": [
                        {
                            "system": "http://loinc.org",
                            "code": "8462-4",
                            "display": "Diastolic BP"
                        }
                    ],
                    "text": "Diastolic BP"
                },
                "valueQuantity": {
                    "value": 96,
                    "units": "mm[Hg]",
                    "code": "mm[Hg]",
                    "system": "http://unitsofmeasure.org"
                },
                "issued": "2012-08-06",
                "status": "final",
                "reliability": "ok",
                "extension": [
                    {
                        "url": "http://amida.com/fhir/Profile/extensions#observation-type",
                        "valueCoding": {
                            "code": "8716-3",
                            "display": "Vital signs",
                            "system": "http://loinc.org"
                        }
                    }
                ],
                "subject": {
                    "reference": "Patient/some-id-here-1987",
                    "display": "DOE, JOE"
                }
            }
        },
        {
            "id": "Observation/0c15aea6-6122-4fa5-a835-952f81ddab1d",
            "content": {
                "resourceType": "Observation",
                "name": {
                    "coding": [
                        {
                            "system": "http://loinc.org",
                            "code": "8310-5",
                            "display": "Body Temperature"
                        }
                    ],
                    "text": "Body Temperature"
                },
                "valueQuantity": {
                    "value": 98.4,
                    "units": "[degF]",
                    "code": "[degF]",
                    "system": "http://unitsofmeasure.org"
                },
                "issued": "2012-08-06",
                "status": "final",
                "reliability": "ok",
                "extension": [
                    {
                        "url": "http://amida.com/fhir/Profile/extensions#observation-type",
                        "valueCoding": {
                            "code": "8716-3",
                            "display": "Vital signs",
                            "system": "http://loinc.org"
                        }
                    }
                ],
                "subject": {
                    "reference": "Patient/some-id-here-1987",
                    "display": "DOE, JOE"
                }
            }
        },
        {
            "id": "Observation/657fa6f3-d8d3-45c3-8f8f-b858f3c0a678",
            "content": {
                "resourceType": "Observation",
                "name": {
                    "coding": [
                        {
                            "system": "http://loinc.org",
                            "code": "8302-2",
                            "display": "Height"
                        }
                    ],
                    "text": "Height"
                },
                "valueQuantity": {
                    "value": 64,
                    "units": "[in_us]",
                    "code": "[in_us]",
                    "system": "http://unitsofmeasure.org"
                },
                "issued": "2012-08-06",
                "status": "final",
                "reliability": "ok",
                "extension": [
                    {
                        "url": "http://amida.com/fhir/Profile/extensions#observation-type",
                        "valueCoding": {
                            "code": "8716-3",
                            "display": "Vital signs",
                            "system": "http://loinc.org"
                        }
                    }
                ],
                "subject": {
                    "reference": "Patient/some-id-here-1987",
                    "display": "DOE, JOE"
                }
            }
        },
        {
            "id": "Observation/74969959-fa95-40b8-b4b0-b80008fe3d6f",
            "content": {
                "resourceType": "Observation",
                "name": {
                    "coding": [
                        {
                            "system": "http://loinc.org",
                            "code": "8287-5",
                            "display": "Head Circumference"
                        }
                    ],
                    "text": "Head Circumference"
                },
                "valueQuantity": {
                    "value": 0,
                    "units": "[in_us]",
                    "code": "[in_us]",
                    "system": "http://unitsofmeasure.org"
                },
                "issued": "2012-08-06",
                "status": "final",
                "reliability": "ok",
                "extension": [
                    {
                        "url": "http://amida.com/fhir/Profile/extensions#observation-type",
                        "valueCoding": {
                            "code": "8716-3",
                            "display": "Vital signs",
                            "system": "http://loinc.org"
                        }
                    }
                ],
                "subject": {
                    "reference": "Patient/some-id-here-1987",
                    "display": "DOE, JOE"
                }
            }
        },
        {
            "id": "Observation/68a4a4c9-0839-4632-8641-fe9cbccfc2db",
            "content": {
                "resourceType": "Observation",
                "name": {
                    "coding": [
                        {
                            "system": "http://loinc.org",
                            "code": "3141-9",
                            "display": "Weight Measured"
                        }
                    ],
                    "text": "Weight Measured"
                },
                "valueQuantity": {
                    "value": 192,
                    "units": "[lb_av]",
                    "code": "[lb_av]",
                    "system": "http://unitsofmeasure.org"
                },
                "issued": "2012-08-06",
                "status": "final",
                "reliability": "ok",
                "extension": [
                    {
                        "url": "http://amida.com/fhir/Profile/extensions#observation-type",
                        "valueCoding": {
                            "code": "8716-3",
                            "display": "Vital signs",
                            "system": "http://loinc.org"
                        }
                    }
                ],
                "subject": {
                    "reference": "Patient/some-id-here-1987",
                    "display": "DOE, JOE"
                }
            }
        },
        {
            "id": "Observation/68b7588b-0899-42ae-984f-d587d1f154be",
            "content": {
                "resourceType": "Observation",
                "name": {
                    "coding": [
                        {
                            "system": "http://loinc.org",
                            "code": "39156-5",
                            "display": "BMI (Body Mass Index)"
                        }
                    ],
                    "text": "BMI (Body Mass Index)"
                },
                "valueQuantity": {
                    "value": 32.9531,
                    "units": "kg/m2",
                    "code": "kg/m2",
                    "system": "http://unitsofmeasure.org"
                },
                "issued": "2012-08-06",
                "status": "final",
                "reliability": "ok",
                "extension": [
                    {
                        "url": "http://amida.com/fhir/Profile/extensions#observation-type",
                        "valueCoding": {
                            "code": "8716-3",
                            "display": "Vital signs",
                            "system": "http://loinc.org"
                        }
                    }
                ],
                "subject": {
                    "reference": "Patient/some-id-here-1987",
                    "display": "DOE, JOE"
                }
            }
        },
        {
            "id": "Observation/f1931dc2-f265-49ae-9c9f-0f617eb0ad51",
            "content": {
                "resourceType": "Observation",
                "name": {
                    "coding": [
                        {
                            "system": "http://loinc.org",
                            "code": "35094-2",
                            "display": "Blood pressure panel"
                        }
                    ],
                    "text": "Blood pressure panel"
                },
                "issued": "2012-08-06",
                "status": "final",
                "reliability": "ok",
                "extension": [
                    {
                        "url": "http://amida.com/fhir/Profile/extensions#observation-type",
                        "valueCoding": {
                            "code": "8716-3",
                            "display": "Vital signs",
                            "system": "http://loinc.org"
                        }
                    }
                ],
                "related": [
                    {
                        "type": "has-component",
                        "target": {
                            "reference": "Observation/18a5ff8f-77ec-4222-bb01-077417ab5eb1"
                        }
                    },
                    {
                        "type": "has-component",
                        "target": {
                            "reference": "Observation/8b67e53f-d2a8-4403-b074-cb99117d54de"
                        }
                    }
                ],
                "subject": {
                    "reference": "Patient/some-id-here-1987",
                    "display": "DOE, JOE"
                }
            }
        },
        {
            "id": "Observation/6b5118c9-11b3-4e96-a6af-4ef973ce5f29",
            "content": {
                "resourceType": "Observation",
                "name": {
                    "coding": [
                        {
                            "system": "http://loinc.org",
                            "code": "55418-8",
                            "display": "Weight and Height tracking panel"
                        }
                    ],
                    "text": "Weight and Height tracking panel"
                },
                "issued": "2012-08-06",
                "status": "final",
                "reliability": "ok",
                "extension": [
                    {
                        "url": "http://amida.com/fhir/Profile/extensions#observation-type",
                        "valueCoding": {
                            "code": "8716-3",
                            "display": "Vital signs",
                            "system": "http://loinc.org"
                        }
                    }
                ],
                "related": [
                    {
                        "type": "has-component",
                        "target": {
                            "reference": "Observation/657fa6f3-d8d3-45c3-8f8f-b858f3c0a678"
                        }
                    },
                    {
                        "type": "has-component",
                        "target": {
                            "reference": "Observation/68a4a4c9-0839-4632-8641-fe9cbccfc2db"
                        }
                    },
                    {
                        "type": "has-component",
                        "target": {
                            "reference": "Observation/68b7588b-0899-42ae-984f-d587d1f154be"
                        }
                    }
                ],
                "subject": {
                    "reference": "Patient/some-id-here-1987",
                    "display": "DOE, JOE"
                }
            }
        },
        {
            "id": "Condition/0079f600-b9fd-4936-97ad-cbef9b0fbd9b",
            "content": {
                "resourceType": "Condition",
                "status": "confirmed",
                "code": {
                    "coding": [
                        {
                            "system": "urn:oid:2.16.840.1.113883.6.103",
                            "code": "401.1",
                            "display": "Hypertension, benign"
                        }
                    ],
                    "text": "Hypertension, benign"
                },
                "subject": {
                    "reference": "Patient/some-id-here-1987",
                    "display": "DOE, JOE"
                }
            }
        },
        {
            "id": "Condition/af157c24-178b-482d-842c-ebe3f4ce06c4",
            "content": {
                "resourceType": "Condition",
                "status": "confirmed",
                "code": {
                    "coding": [
                        {
                            "system": "urn:oid:2.16.840.1.113883.6.103",
                            "code": "272.2",
                            "display": "Hyperlipidemia, mixed"
                        }
                    ],
                    "text": "Hyperlipidemia, mixed"
                },
                "subject": {
                    "reference": "Patient/some-id-here-1987",
                    "display": "DOE, JOE"
                }
            }
        },
        {
            "id": "Condition/c78c0f3d-cdf1-48c0-be8c-af041408baae",
            "content": {
                "resourceType": "Condition",
                "status": "confirmed",
                "code": {
                    "coding": [
                        {
                            "system": "urn:oid:2.16.840.1.113883.6.103",
                            "code": "250.00",
                            "display": "Diabetes II, uncomplicated"
                        }
                    ],
                    "text": "Diabetes II, uncomplicated"
                },
                "subject": {
                    "reference": "Patient/some-id-here-1987",
                    "display": "DOE, JOE"
                }
            }
        },
        {
            "id": "MedicationPrescription/020dde0b-7291-4801-b2f3-f0c7a8152139",
            "content": {
                "resourceType": "MedicationPrescription",
                "status": "active",
                "medication": {
                    "reference": "Medication/c59d3b6f-bd4d-4c56-aaa7-188b883ec541",
                    "display": "lisinopril 10 mg"
                },
                "patient": {
                    "reference": "Patient/some-id-here-1987",
                    "display": "DOE, JOE"
                }
            }
        },
        {
            "id": "MedicationAdministration/dc8116f8-42db-41d4-9317-fcd76b109adc",
            "content": {
                "resourceType": "MedicationAdministration",
                "status": "completed",
                "practitioner": {
                    "reference": "Practitioner/unknown",
                    "display": "Unknown"
                },
                "prescription": {
                    "reference": "MedicationPrescription/020dde0b-7291-4801-b2f3-f0c7a8152139"
                },
                "medication": {
                    "reference": "Medication/52e8728d-3779-4093-a862-5fef08e19d2d",
                    "display": "lisinopril 10 mg"
                },
                "patient": {
                    "reference": "Patient/some-id-here-1987",
                    "display": "DOE, JOE"
                }
            }
        },
        {
            "id": "MedicationPrescription/7e0f8292-a3fd-4fc2-b2a4-9ea7fb97138e",
            "content": {
                "resourceType": "MedicationPrescription",
                "status": "active",
                "medication": {
                    "reference": "Medication/ff4b6a1c-6ef6-4672-a239-9ade9a04c838",
                    "display": "glyBURIDE 5 mg"
                },
                "patient": {
                    "reference": "Patient/some-id-here-1987",
                    "display": "DOE, JOE"
                }
            }
        },
        {
            "id": "MedicationAdministration/78db3b40-232f-45b4-8edd-140a89ed3696",
            "content": {
                "resourceType": "MedicationAdministration",
                "status": "completed",
                "practitioner": {
                    "reference": "Practitioner/unknown",
                    "display": "Unknown"
                },
                "prescription": {
                    "reference": "MedicationPrescription/7e0f8292-a3fd-4fc2-b2a4-9ea7fb97138e"
                },
                "medication": {
                    "reference": "Medication/05eca7f8-f4cc-4113-9db1-9c4182a8429e",
                    "display": "glyBURIDE 5 mg"
                },
                "patient": {
                    "reference": "Patient/some-id-here-1987",
                    "display": "DOE, JOE"
                }
            }
        },
        {
            "id": "MedicationPrescription/80bc69ac-614e-45bc-9ea0-4838b900e885",
            "content": {
                "resourceType": "MedicationPrescription",
                "status": "active",
                "medication": {
                    "reference": "Medication/3b21ec8f-278c-4473-98e2-6c3f8db576e6",
                    "display": "lovastatin 20 mg"
                },
                "patient": {
                    "reference": "Patient/some-id-here-1987",
                    "display": "DOE, JOE"
                }
            }
        },
        {
            "id": "MedicationAdministration/86de04f1-c4a4-4e45-b649-72217dd4e251",
            "content": {
                "resourceType": "MedicationAdministration",
                "status": "completed",
                "practitioner": {
                    "reference": "Practitioner/unknown",
                    "display": "Unknown"
                },
                "prescription": {
                    "reference": "MedicationPrescription/80bc69ac-614e-45bc-9ea0-4838b900e885"
                },
                "medication": {
                    "reference": "Medication/97be54f3-24fa-4494-aca0-d6bf277f3add",
                    "display": "lovastatin 20 mg"
                },
                "patient": {
                    "reference": "Patient/some-id-here-1987",
                    "display": "DOE, JOE"
                }
            }
        },
        {
            "id": "MedicationPrescription/ccf00848-de37-4cfa-95a5-f9cca099a421",
            "content": {
                "resourceType": "MedicationPrescription",
                "status": "active",
                "dosageInstruction": [
                    {
                        "timingPeriod": {
                            "end": "2007-08-06"
                        }
                    }
                ],
                "medication": {
                    "reference": "Medication/25e905ac-e737-43bf-b474-5243eb03e229",
                    "display": "metFORMIN 500 mg"
                },
                "patient": {
                    "reference": "Patient/some-id-here-1987",
                    "display": "DOE, JOE"
                }
            }
        },
        {
            "id": "MedicationAdministration/5a20088d-1ad5-4038-aa19-f4fbfb302f08",
            "content": {
                "resourceType": "MedicationAdministration",
                "status": "completed",
                "practitioner": {
                    "reference": "Practitioner/unknown",
                    "display": "Unknown"
                },
                "whenGiven": {
                    "end": "2007-08-06"
                },
                "dosage": [
                    {
                        "timingPeriod": {
                            "end": "2007-08-06"
                        }
                    }
                ],
                "prescription": {
                    "reference": "MedicationPrescription/ccf00848-de37-4cfa-95a5-f9cca099a421"
                },
                "medication": {
                    "reference": "Medication/7731908d-05bc-4e90-b489-1683ef76cd73",
                    "display": "metFORMIN 500 mg"
                },
                "patient": {
                    "reference": "Patient/some-id-here-1987",
                    "display": "DOE, JOE"
                }
            }
        },
        {
            "id": "Medication/c59d3b6f-bd4d-4c56-aaa7-188b883ec541",
            "content": {
                "resourceType": "Medication",
                "name": "lisinopril 10 mg",
                "code": {
                    "coding": [
                        {
                            "system": "http://www.nlm.nih.gov/research/umls/rxnorm",
                            "code": "314076",
                            "display": "lisinopril 10 mg"
                        }
                    ],
                    "text": "lisinopril 10 mg"
                }
            }
        },
        {
            "id": "Medication/52e8728d-3779-4093-a862-5fef08e19d2d",
            "content": {
                "resourceType": "Medication",
                "name": "lisinopril 10 mg",
                "code": {
                    "coding": [
                        {
                            "system": "http://www.nlm.nih.gov/research/umls/rxnorm",
                            "code": "314076",
                            "display": "lisinopril 10 mg"
                        }
                    ],
                    "text": "lisinopril 10 mg"
                }
            }
        },
        {
            "id": "Medication/ff4b6a1c-6ef6-4672-a239-9ade9a04c838",
            "content": {
                "resourceType": "Medication",
                "name": "glyBURIDE 5 mg",
                "code": {
                    "coding": [
                        {
                            "system": "http://www.nlm.nih.gov/research/umls/rxnorm",
                            "code": "310537",
                            "display": "glyBURIDE 5 mg"
                        }
                    ],
                    "text": "glyBURIDE 5 mg"
                }
            }
        },
        {
            "id": "Medication/05eca7f8-f4cc-4113-9db1-9c4182a8429e",
            "content": {
                "resourceType": "Medication",
                "name": "glyBURIDE 5 mg",
                "code": {
                    "coding": [
                        {
                            "system": "http://www.nlm.nih.gov/research/umls/rxnorm",
                            "code": "310537",
                            "display": "glyBURIDE 5 mg"
                        }
                    ],
                    "text": "glyBURIDE 5 mg"
                }
            }
        },
        {
            "id": "Medication/3b21ec8f-278c-4473-98e2-6c3f8db576e6",
            "content": {
                "resourceType": "Medication",
                "name": "lovastatin 20 mg",
                "code": {
                    "coding": [
                        {
                            "system": "http://www.nlm.nih.gov/research/umls/rxnorm",
                            "code": "197904",
                            "display": "lovastatin 20 mg"
                        }
                    ],
                    "text": "lovastatin 20 mg"
                }
            }
        },
        {
            "id": "Medication/97be54f3-24fa-4494-aca0-d6bf277f3add",
            "content": {
                "resourceType": "Medication",
                "name": "lovastatin 20 mg",
                "code": {
                    "coding": [
                        {
                            "system": "http://www.nlm.nih.gov/research/umls/rxnorm",
                            "code": "197904",
                            "display": "lovastatin 20 mg"
                        }
                    ],
                    "text": "lovastatin 20 mg"
                }
            }
        },
        {
            "id": "Medication/25e905ac-e737-43bf-b474-5243eb03e229",
            "content": {
                "resourceType": "Medication",
                "name": "metFORMIN 500 mg",
                "code": {
                    "coding": [
                        {
                            "system": "http://www.nlm.nih.gov/research/umls/rxnorm",
                            "code": "861007",
                            "display": "metFORMIN 500 mg"
                        }
                    ],
                    "text": "metFORMIN 500 mg"
                }
            }
        },
        {
            "id": "Medication/7731908d-05bc-4e90-b489-1683ef76cd73",
            "content": {
                "resourceType": "Medication",
                "name": "metFORMIN 500 mg",
                "code": {
                    "coding": [
                        {
                            "system": "http://www.nlm.nih.gov/research/umls/rxnorm",
                            "code": "861007",
                            "display": "metFORMIN 500 mg"
                        }
                    ],
                    "text": "metFORMIN 500 mg"
                }
            }
        }
    ]
}