{
    "resourceType": "Bundle",
    "totalResults": 22,
    "entry": [
        {
            "id": "Observation/7d5b6c78-0a7c-4e20-9b8f-1898c02462ae",
            "content": {
                "resourceType": "Observation",
                "name": {
                    "coding": [
                        {
                            "system": "http://loinc.org",
                            "code": "9279-1",
                            "display": "Respiratory Rate"
                        }
                    ],
                    "text": "Respiratory Rate"
                },
                "valueQuantity": {
                    "value": 0,
                    "units": "/min",
                    "code": "/min",
                    "system": "http://unitsofmeasure.org"
                },
                "issued": "2012-08-06",
                "status": "final",
                "reliability": "ok",
                "extension": [
                    {
                        "url": "http://amida.com/fhir/Profile/extensions#observation-type",
                        "valueCoding": {
                            "code": "8716-3",
                            "display": "Vital signs",
                            "system": "http://loinc.org"
                        }
                    }
                ]
            }
        },
        {
            "id": "Observation/4f0ba19b-e898-47a4-9729-33b68a13edac",
            "content": {
                "resourceType": "Observation",
                "name": {
                    "coding": [
                        {
                            "system": "http://loinc.org",
                            "code": "8867-4",
                            "display": "Heart Rate"
                        }
                    ],
                    "text": "Heart Rate"
                },
                "valueQuantity": {
                    "value": 72,
                    "units": "/min",
                    "code": "/min",
                    "system": "http://unitsofmeasure.org"
                },
                "issued": "2012-08-06",
                "status": "final",
                "reliability": "ok",
                "extension": [
                    {
                        "url": "http://amida.com/fhir/Profile/extensions#observation-type",
                        "valueCoding": {
                            "code": "8716-3",
                            "display": "Vital signs",
                            "system": "http://loinc.org"
                        }
                    }
                ]
            }
        },
        {
            "id": "Observation/20cb37f2-6820-4c8f-ae50-1a631aac0e87",
            "content": {
                "resourceType": "Observation",
                "name": {
                    "coding": [
                        {
                            "system": "http://loinc.org",
                            "code": "8480-6",
                            "display": "Systolic BP"
                        }
                    ],
                    "text": "Systolic BP"
                },
                "valueQuantity": {
                    "value": 140,
                    "units": "mm[Hg]",
                    "code": "mm[Hg]",
                    "system": "http://unitsofmeasure.org"
                },
                "issued": "2012-08-06",
                "status": "final",
                "reliability": "ok",
                "extension": [
                    {
                        "url": "http://amida.com/fhir/Profile/extensions#observation-type",
                        "valueCoding": {
                            "code": "8716-3",
                            "display": "Vital signs",
                            "system": "http://loinc.org"
                        }
                    }
                ]
            }
        },
        {
            "id": "Observation/97f03f7c-6736-4b52-b607-6fd4e5ee4d92",
            "content": {
                "resourceType": "Observation",
                "name": {
                    "coding": [
                        {
                            "system": "http://loinc.org",
                            "code": "8462-4",
                            "display": "Diastolic BP"
                        }
                    ],
                    "text": "Diastolic BP"
                },
                "valueQuantity": {
                    "value": 96,
                    "units": "mm[Hg]",
                    "code": "mm[Hg]",
                    "system": "http://unitsofmeasure.org"
                },
                "issued": "2012-08-06",
                "status": "final",
                "reliability": "ok",
                "extension": [
                    {
                        "url": "http://amida.com/fhir/Profile/extensions#observation-type",
                        "valueCoding": {
                            "code": "8716-3",
                            "display": "Vital signs",
                            "system": "http://loinc.org"
                        }
                    }
                ]
            }
        },
        {
            "id": "Observation/57752016-dc45-40f6-878d-a2cee2071ed6",
            "content": {
                "resourceType": "Observation",
                "name": {
                    "coding": [
                        {
                            "system": "http://loinc.org",
                            "code": "8310-5",
                            "display": "Body Temperature"
                        }
                    ],
                    "text": "Body Temperature"
                },
                "valueQuantity": {
                    "value": 98.4,
                    "units": "[degF]",
                    "code": "[degF]",
                    "system": "http://unitsofmeasure.org"
                },
                "issued": "2012-08-06",
                "status": "final",
                "reliability": "ok",
                "extension": [
                    {
                        "url": "http://amida.com/fhir/Profile/extensions#observation-type",
                        "valueCoding": {
                            "code": "8716-3",
                            "display": "Vital signs",
                            "system": "http://loinc.org"
                        }
                    }
                ]
            }
        },
        {
            "id": "Observation/b46afec0-face-4039-95e4-7483ea575567",
            "content": {
                "resourceType": "Observation",
                "name": {
                    "coding": [
                        {
                            "system": "http://loinc.org",
                            "code": "8302-2",
                            "display": "Height"
                        }
                    ],
                    "text": "Height"
                },
                "valueQuantity": {
                    "value": 64,
                    "units": "[in_us]",
                    "code": "[in_us]",
                    "system": "http://unitsofmeasure.org"
                },
                "issued": "2012-08-06",
                "status": "final",
                "reliability": "ok",
                "extension": [
                    {
                        "url": "http://amida.com/fhir/Profile/extensions#observation-type",
                        "valueCoding": {
                            "code": "8716-3",
                            "display": "Vital signs",
                            "system": "http://loinc.org"
                        }
                    }
                ]
            }
        },
        {
            "id": "Observation/0c6db25a-4022-4496-a9a5-c684d7dda830",
            "content": {
                "resourceType": "Observation",
                "name": {
                    "coding": [
                        {
                            "system": "http://loinc.org",
                            "code": "8287-5",
                            "display": "Head Circumference"
                        }
                    ],
                    "text": "Head Circumference"
                },
                "valueQuantity": {
                    "value": 0,
                    "units": "[in_us]",
                    "code": "[in_us]",
                    "system": "http://unitsofmeasure.org"
                },
                "issued": "2012-08-06",
                "status": "final",
                "reliability": "ok",
                "extension": [
                    {
                        "url": "http://amida.com/fhir/Profile/extensions#observation-type",
                        "valueCoding": {
                            "code": "8716-3",
                            "display": "Vital signs",
                            "system": "http://loinc.org"
                        }
                    }
                ]
            }
        },
        {
            "id": "Observation/f646350c-c204-4e37-8e83-c426623a853f",
            "content": {
                "resourceType": "Observation",
                "name": {
                    "coding": [
                        {
                            "system": "http://loinc.org",
                            "code": "3141-9",
                            "display": "Weight Measured"
                        }
                    ],
                    "text": "Weight Measured"
                },
                "valueQuantity": {
                    "value": 192,
                    "units": "[lb_av]",
                    "code": "[lb_av]",
                    "system": "http://unitsofmeasure.org"
                },
                "issued": "2012-08-06",
                "status": "final",
                "reliability": "ok",
                "extension": [
                    {
                        "url": "http://amida.com/fhir/Profile/extensions#observation-type",
                        "valueCoding": {
                            "code": "8716-3",
                            "display": "Vital signs",
                            "system": "http://loinc.org"
                        }
                    }
                ]
            }
        },
        {
            "id": "Observation/2177a7b5-9bf6-422a-ac74-b07459f96979",
            "content": {
                "resourceType": "Observation",
                "name": {
                    "coding": [
                        {
                            "system": "http://loinc.org",
                            "code": "39156-5",
                            "display": "BMI (Body Mass Index)"
                        }
                    ],
                    "text": "BMI (Body Mass Index)"
                },
                "valueQuantity": {
                    "value": 32.9531,
                    "units": "kg/m2",
                    "code": "kg/m2",
                    "system": "http://unitsofmeasure.org"
                },
                "issued": "2012-08-06",
                "status": "final",
                "reliability": "ok",
                "extension": [
                    {
                        "url": "http://amida.com/fhir/Profile/extensions#observation-type",
                        "valueCoding": {
                            "code": "8716-3",
                            "display": "Vital signs",
                            "system": "http://loinc.org"
                        }
                    }
                ]
            }
        },
        {
            "id": "Observation/cdab1cc3-75fd-4be8-810a-3b0e2ef1c24f",
            "content": {
                "resourceType": "Observation",
                "name": {
                    "coding": [
                        {
                            "system": "http://loinc.org",
                            "code": "35094-2",
                            "display": "Blood pressure panel"
                        }
                    ],
                    "text": "Blood pressure panel"
                },
                "issued": "2012-08-06",
                "status": "final",
                "reliability": "ok",
                "extension": [
                    {
                        "url": "http://amida.com/fhir/Profile/extensions#observation-type",
                        "valueCoding": {
                            "code": "8716-3",
                            "display": "Vital signs",
                            "system": "http://loinc.org"
                        }
                    }
                ],
                "related": [
                    {
                        "type": "has-component",
                        "target": {
                            "reference": "Observation/20cb37f2-6820-4c8f-ae50-1a631aac0e87"
                        }
                    },
                    {
                        "type": "has-component",
                        "target": {
                            "reference": "Observation/97f03f7c-6736-4b52-b607-6fd4e5ee4d92"
                        }
                    }
                ]
            }
        },
        {
            "id": "Observation/4426a66e-b597-4d3c-a28b-9d09523e0a64",
            "content": {
                "resourceType": "Observation",
                "name": {
                    "coding": [
                        {
                            "system": "http://loinc.org",
                            "code": "55418-8",
                            "display": "Weight and Height tracking panel"
                        }
                    ],
                    "text": "Weight and Height tracking panel"
                },
                "issued": "2012-08-06",
                "status": "final",
                "reliability": "ok",
                "extension": [
                    {
                        "url": "http://amida.com/fhir/Profile/extensions#observation-type",
                        "valueCoding": {
                            "code": "8716-3",
                            "display": "Vital signs",
                            "system": "http://loinc.org"
                        }
                    }
                ],
                "related": [
                    {
                        "type": "has-component",
                        "target": {
                            "reference": "Observation/b46afec0-face-4039-95e4-7483ea575567"
                        }
                    },
                    {
                        "type": "has-component",
                        "target": {
                            "reference": "Observation/f646350c-c204-4e37-8e83-c426623a853f"
                        }
                    },
                    {
                        "type": "has-component",
                        "target": {
                            "reference": "Observation/2177a7b5-9bf6-422a-ac74-b07459f96979"
                        }
                    }
                ]
            }
        },
        {
            "id": "Condition/70b47500-a23a-4042-868a-d362bda5a3cf",
            "content": {
                "resourceType": "Condition",
                "status": "confirmed",
                "code": {
                    "coding": [
                        {
                            "system": "urn:oid:2.16.840.1.113883.6.103",
                            "code": "401.1",
                            "display": "Hypertension, benign"
                        }
                    ],
                    "text": "Hypertension, benign"
                }
            }
        },
        {
            "id": "Condition/69ea46f0-f332-4432-a619-fe342e405982",
            "content": {
                "resourceType": "Condition",
                "status": "confirmed",
                "code": {
                    "coding": [
                        {
                            "system": "urn:oid:2.16.840.1.113883.6.103",
                            "code": "272.2",
                            "display": "Hyperlipidemia, mixed"
                        }
                    ],
                    "text": "Hyperlipidemia, mixed"
                }
            }
        },
        {
            "id": "Condition/d37bf990-2358-4b8c-b49c-655d400bca29",
            "content": {
                "resourceType": "Condition",
                "status": "confirmed",
                "code": {
                    "coding": [
                        {
                            "system": "urn:oid:2.16.840.1.113883.6.103",
                            "code": "250.00",
                            "display": "Diabetes II, uncomplicated"
                        }
                    ],
                    "text": "Diabetes II, uncomplicated"
                }
            }
        },
        {
            "id": "MedicationPrescription/7e5cbc54-447d-4554-855d-831b117c3dc7",
            "content": {
                "resourceType": "MedicationPrescription",
                "status": "active",
                "contained": [
                    {
                        "id": "med",
                        "resourceType": "Medication",
                        "name": "lisinopril 10 mg",
                        "code": {
                            "coding": [
                                {
                                    "system": "http://www.nlm.nih.gov/research/umls/rxnorm",
                                    "code": "314076",
                                    "display": "lisinopril 10 mg"
                                }
                            ],
                            "text": "lisinopril 10 mg"
                        }
                    }
                ],
                "medication": {
                    "reference": "#med",
                    "display": "lisinopril 10 mg"
                }
            }
        },
        {
            "id": "MedicationAdministration/ad0866d3-5501-459a-9c04-9b363107a56d",
            "content": {
                "resourceType": "MedicationAdministration",
                "status": "completed",
                "practitioner": {
                    "reference": "Practitioner/unknown",
                    "display": "Unknown"
                },
                "prescription": {
                    "reference": "MedicationPrescription/7e5cbc54-447d-4554-855d-831b117c3dc7"
                },
                "contained": [
                    {
                        "id": "med",
                        "resourceType": "Medication",
                        "name": "lisinopril 10 mg",
                        "code": {
                            "coding": [
                                {
                                    "system": "http://www.nlm.nih.gov/research/umls/rxnorm",
                                    "code": "314076",
                                    "display": "lisinopril 10 mg"
                                }
                            ],
                            "text": "lisinopril 10 mg"
                        }
                    }
                ],
                "medication": {
                    "reference": "#med",
                    "display": "lisinopril 10 mg"
                }
            }
        },
        {
            "id": "MedicationPrescription/2c93eab6-d1b6-4d7d-be1e-3cbbda1a1c15",
            "content": {
                "resourceType": "MedicationPrescription",
                "status": "active",
                "contained": [
                    {
                        "id": "med",
                        "resourceType": "Medication",
                        "name": "glyBURIDE 5 mg",
                        "code": {
                            "coding": [
                                {
                                    "system": "http://www.nlm.nih.gov/research/umls/rxnorm",
                                    "code": "310537",
                                    "display": "glyBURIDE 5 mg"
                                }
                            ],
                            "text": "glyBURIDE 5 mg"
                        }
                    }
                ],
                "medication": {
                    "reference": "#med",
                    "display": "glyBURIDE 5 mg"
                }
            }
        },
        {
            "id": "MedicationAdministration/a1e2599b-be1f-4ac9-8524-673fe93e3d64",
            "content": {
                "resourceType": "MedicationAdministration",
                "status": "completed",
                "practitioner": {
                    "reference": "Practitioner/unknown",
                    "display": "Unknown"
                },
                "prescription": {
                    "reference": "MedicationPrescription/2c93eab6-d1b6-4d7d-be1e-3cbbda1a1c15"
                },
                "contained": [
                    {
                        "id": "med",
                        "resourceType": "Medication",
                        "name": "glyBURIDE 5 mg",
                        "code": {
                            "coding": [
                                {
                                    "system": "http://www.nlm.nih.gov/research/umls/rxnorm",
                                    "code": "310537",
                                    "display": "glyBURIDE 5 mg"
                                }
                            ],
                            "text": "glyBURIDE 5 mg"
                        }
                    }
                ],
                "medication": {
                    "reference": "#med",
                    "display": "glyBURIDE 5 mg"
                }
            }
        },
        {
            "id": "MedicationPrescription/e18821ee-75e9-43ce-bf55-69022e15a736",
            "content": {
                "resourceType": "MedicationPrescription",
                "status": "active",
                "contained": [
                    {
                        "id": "med",
                        "resourceType": "Medication",
                        "name": "lovastatin 20 mg",
                        "code": {
                            "coding": [
                                {
                                    "system": "http://www.nlm.nih.gov/research/umls/rxnorm",
                                    "code": "197904",
                                    "display": "lovastatin 20 mg"
                                }
                            ],
                            "text": "lovastatin 20 mg"
                        }
                    }
                ],
                "medication": {
                    "reference": "#med",
                    "display": "lovastatin 20 mg"
                }
            }
        },
        {
            "id": "MedicationAdministration/c2963ea6-998a-48db-8cfd-60baa65e0849",
            "content": {
                "resourceType": "MedicationAdministration",
                "status": "completed",
                "practitioner": {
                    "reference": "Practitioner/unknown",
                    "display": "Unknown"
                },
                "prescription": {
                    "reference": "MedicationPrescription/e18821ee-75e9-43ce-bf55-69022e15a736"
                },
                "contained": [
                    {
                        "id": "med",
                        "resourceType": "Medication",
                        "name": "lovastatin 20 mg",
                        "code": {
                            "coding": [
                                {
                                    "system": "http://www.nlm.nih.gov/research/umls/rxnorm",
                                    "code": "197904",
                                    "display": "lovastatin 20 mg"
                                }
                            ],
                            "text": "lovastatin 20 mg"
                        }
                    }
                ],
                "medication": {
                    "reference": "#med",
                    "display": "lovastatin 20 mg"
                }
            }
        },
        {
            "id": "MedicationPrescription/12c6da9c-f830-4b13-a499-3f3db2976d36",
            "content": {
                "resourceType": "MedicationPrescription",
                "status": "active",
                "dosageInstruction": [
                    {
                        "timingPeriod": {
                            "end": "2007-08-06"
                        }
                    }
                ],
                "contained": [
                    {
                        "id": "med",
                        "resourceType": "Medication",
                        "name": "metFORMIN 500 mg",
                        "code": {
                            "coding": [
                                {
                                    "system": "http://www.nlm.nih.gov/research/umls/rxnorm",
                                    "code": "861007",
                                    "display": "metFORMIN 500 mg"
                                }
                            ],
                            "text": "metFORMIN 500 mg"
                        }
                    }
                ],
                "medication": {
                    "reference": "#med",
                    "display": "metFORMIN 500 mg"
                }
            }
        },
        {
            "id": "MedicationAdministration/9e60b92f-6b09-4033-891f-66608f96aeda",
            "content": {
                "resourceType": "MedicationAdministration",
                "status": "completed",
                "practitioner": {
                    "reference": "Practitioner/unknown",
                    "display": "Unknown"
                },
                "whenGiven": {
                    "end": "2007-08-06"
                },
                "dosage": [
                    {
                        "timingPeriod": {
                            "end": "2007-08-06"
                        }
                    }
                ],
                "prescription": {
                    "reference": "MedicationPrescription/12c6da9c-f830-4b13-a499-3f3db2976d36"
                },
                "contained": [
                    {
                        "id": "med",
                        "resourceType": "Medication",
                        "name": "metFORMIN 500 mg",
                        "code": {
                            "coding": [
                                {
                                    "system": "http://www.nlm.nih.gov/research/umls/rxnorm",
                                    "code": "861007",
                                    "display": "metFORMIN 500 mg"
                                }
                            ],
                            "text": "metFORMIN 500 mg"
                        }
                    }
                ],
                "medication": {
                    "reference": "#med",
                    "display": "metFORMIN 500 mg"
                }
            }
        }
    ]
}