{
    "resourceType": "Bundle",
    "total": 23,
    "entry": [
        {
            "resource": {
                "id": "Patient/0",
                "resourceType": "Patient",
                "identifier": [
                    {
                        "system": "urn:oid:2.16.840.1.113883.3.3388.1.1.1.383206.3",
                        "value": "15E0F586-DCE2-4A1E-980D-B84C4B0BD777"
                    }
                ],
                "name": [
                    {
                        "family": [
                            "Teller"
                        ],
                        "given": [
                            "Maria"
                        ]
                    }
                ],
                "telecom": [
                    {
                        "system": "phone",
                        "value": "(510)555-1234",
                        "use": "home"
                    }
                ],
                "gender": "female",
                "birthDate": "1970-12-10",
                "address": [
                    {
                        "use": "home",
                        "line": [
                            "123 Main St"
                        ],
                        "city": "Anytown",
                        "state": "CA",
                        "postalCode": "91000",
                        "country": "United States of America"
                    }
                ]
            }
        },
        {
            "resource": {
                "id": "Observation/1",
                "resourceType": "Observation",
                "code": {
                    "coding": [
                        {
                            "system": "http://loinc.org",
                            "code": "9279-1",
                            "display": "Respiratory Rate"
                        }
                    ],
                    "text": "Respiratory Rate"
                },
                "valueQuantity": {
                    "value": 0,
                    "units": "/min"
                },
                "issued": "2012-08-06",
                "status": "final",
                "reliability": "ok",
                "subject": {
                    "reference": "Patient/0",
                    "display": "Teller, Maria"
                }
            }
        },
        {
            "resource": {
                "id": "Observation/2",
                "resourceType": "Observation",
                "code": {
                    "coding": [
                        {
                            "system": "http://loinc.org",
                            "code": "8867-4",
                            "display": "Heart Rate"
                        }
                    ],
                    "text": "Heart Rate"
                },
                "valueQuantity": {
                    "value": 72,
                    "units": "/min"
                },
                "issued": "2012-08-06",
                "status": "final",
                "reliability": "ok",
                "subject": {
                    "reference": "Patient/0",
                    "display": "Teller, Maria"
                }
            }
        },
        {
            "resource": {
                "id": "Observation/3",
                "resourceType": "Observation",
                "code": {
                    "coding": [
                        {
                            "system": "http://loinc.org",
                            "code": "8480-6",
                            "display": "Systolic BP"
                        }
                    ],
                    "text": "Systolic BP"
                },
                "valueQuantity": {
                    "value": 140,
                    "units": "mm[Hg]"
                },
                "issued": "2012-08-06",
                "status": "final",
                "reliability": "ok",
                "subject": {
                    "reference": "Patient/0",
                    "display": "Teller, Maria"
                }
            }
        },
        {
            "resource": {
                "id": "Observation/4",
                "resourceType": "Observation",
                "code": {
                    "coding": [
                        {
                            "system": "http://loinc.org",
                            "code": "8462-4",
                            "display": "Diastolic BP"
                        }
                    ],
                    "text": "Diastolic BP"
                },
                "valueQuantity": {
                    "value": 96,
                    "units": "mm[Hg]"
                },
                "issued": "2012-08-06",
                "status": "final",
                "reliability": "ok",
                "subject": {
                    "reference": "Patient/0",
                    "display": "Teller, Maria"
                }
            }
        },
        {
            "resource": {
                "id": "Observation/5",
                "resourceType": "Observation",
                "code": {
                    "coding": [
                        {
                            "system": "http://loinc.org",
                            "code": "8310-5",
                            "display": "Body Temperature"
                        }
                    ],
                    "text": "Body Temperature"
                },
                "valueQuantity": {
                    "value": 98.4,
                    "units": "[degF]"
                },
                "issued": "2012-08-06",
                "status": "final",
                "reliability": "ok",
                "subject": {
                    "reference": "Patient/0",
                    "display": "Teller, Maria"
                }
            }
        },
        {
            "resource": {
                "id": "Observation/6",
                "resourceType": "Observation",
                "code": {
                    "coding": [
                        {
                            "system": "http://loinc.org",
                            "code": "8302-2",
                            "display": "Height"
                        }
                    ],
                    "text": "Height"
                },
                "valueQuantity": {
                    "value": 64,
                    "units": "[in_us]"
                },
                "issued": "2012-08-06",
                "status": "final",
                "reliability": "ok",
                "subject": {
                    "reference": "Patient/0",
                    "display": "Teller, Maria"
                }
            }
        },
        {
            "resource": {
                "id": "Observation/7",
                "resourceType": "Observation",
                "code": {
                    "coding": [
                        {
                            "system": "http://loinc.org",
                            "code": "8287-5",
                            "display": "Head Circumference"
                        }
                    ],
                    "text": "Head Circumference"
                },
                "valueQuantity": {
                    "value": 0,
                    "units": "[in_us]"
                },
                "issued": "2012-08-06",
                "status": "final",
                "reliability": "ok",
                "subject": {
                    "reference": "Patient/0",
                    "display": "Teller, Maria"
                }
            }
        },
        {
            "resource": {
                "id": "Observation/8",
                "resourceType": "Observation",
                "code": {
                    "coding": [
                        {
                            "system": "http://loinc.org",
                            "code": "3141-9",
                            "display": "Weight Measured"
                        }
                    ],
                    "text": "Weight Measured"
                },
                "valueQuantity": {
                    "value": 192,
                    "units": "[lb_av]"
                },
                "issued": "2012-08-06",
                "status": "final",
                "reliability": "ok",
                "subject": {
                    "reference": "Patient/0",
                    "display": "Teller, Maria"
                }
            }
        },
        {
            "resource": {
                "id": "Observation/9",
                "resourceType": "Observation",
                "code": {
                    "coding": [
                        {
                            "system": "http://loinc.org",
                            "code": "39156-5",
                            "display": "BMI (Body Mass Index)"
                        }
                    ],
                    "text": "BMI (Body Mass Index)"
                },
                "valueQuantity": {
                    "value": 32.9531,
                    "units": "kg/m2"
                },
                "issued": "2012-08-06",
                "status": "final",
                "reliability": "ok",
                "subject": {
                    "reference": "Patient/0",
                    "display": "Teller, Maria"
                }
            }
        },
        {
            "resource": {
                "id": "Observation/10",
                "resourceType": "Observation",
                "code": {
                    "coding": [
                        {
                            "system": "http://loinc.org",
                            "code": "35094-2",
                            "display": "Blood pressure panel"
                        }
                    ],
                    "text": "Blood pressure panel"
                },
                "issued": "2012-08-06",
                "status": "final",
                "reliability": "ok",
                "related": [
                    {
                        "type": "has-component",
                        "target": {
                            "reference": "Observation/3"
                        }
                    },
                    {
                        "type": "has-component",
                        "target": {
                            "reference": "Observation/4"
                        }
                    }
                ],
                "subject": {
                    "reference": "Patient/0",
                    "display": "Teller, Maria"
                }
            }
        },
        {
            "resource": {
                "id": "Observation/11",
                "resourceType": "Observation",
                "code": {
                    "coding": [
                        {
                            "system": "http://loinc.org",
                            "code": "55418-8",
                            "display": "Weight and Height tracking panel"
                        }
                    ],
                    "text": "Weight and Height tracking panel"
                },
                "issued": "2012-08-06",
                "status": "final",
                "reliability": "ok",
                "related": [
                    {
                        "type": "has-component",
                        "target": {
                            "reference": "Observation/6"
                        }
                    },
                    {
                        "type": "has-component",
                        "target": {
                            "reference": "Observation/8"
                        }
                    },
                    {
                        "type": "has-component",
                        "target": {
                            "reference": "Observation/9"
                        }
                    }
                ],
                "subject": {
                    "reference": "Patient/0",
                    "display": "Teller, Maria"
                }
            }
        },
        {
            "resource": {
                "id": "Condition/12",
                "resourceType": "Condition",
                "clinicalStatus": "confirmed",
                "code": {
                    "coding": [
                        {
                            "system": "urn:oid:2.16.840.1.113883.6.103",
                            "code": "401.1",
                            "display": "Hypertension, benign"
                        }
                    ],
                    "text": "Hypertension, benign"
                },
                "patient": {
                    "reference": "Patient/0",
                    "display": "Teller, Maria"
                }
            }
        },
        {
            "resource": {
                "id": "Condition/13",
                "resourceType": "Condition",
                "clinicalStatus": "confirmed",
                "code": {
                    "coding": [
                        {
                            "system": "urn:oid:2.16.840.1.113883.6.103",
                            "code": "272.2",
                            "display": "Hyperlipidemia, mixed"
                        }
                    ],
                    "text": "Hyperlipidemia, mixed"
                },
                "patient": {
                    "reference": "Patient/0",
                    "display": "Teller, Maria"
                }
            }
        },
        {
            "resource": {
                "id": "Condition/14",
                "resourceType": "Condition",
                "clinicalStatus": "confirmed",
                "code": {
                    "coding": [
                        {
                            "system": "urn:oid:2.16.840.1.113883.6.103",
                            "code": "250.00",
                            "display": "Diabetes II, uncomplicated"
                        }
                    ],
                    "text": "Diabetes II, uncomplicated"
                },
                "patient": {
                    "reference": "Patient/0",
                    "display": "Teller, Maria"
                }
            }
        },
        {
            "resource": {
                "id": "MedicationPrescription/15",
                "resourceType": "MedicationPrescription",
                "status": "active",
                "contained": [
                    {
                        "id": "med",
                        "resourceType": "Medication",
                        "name": "lisinopril 10 mg",
                        "code": {
                            "coding": [
                                {
                                    "system": "http://www.nlm.nih.gov/research/umls/rxnorm",
                                    "code": "314076",
                                    "display": "lisinopril 10 mg"
                                }
                            ],
                            "text": "lisinopril 10 mg"
                        }
                    }
                ],
                "medication": {
                    "reference": "#med",
                    "display": "lisinopril 10 mg"
                },
                "patient": {
                    "reference": "Patient/0",
                    "display": "Teller, Maria"
                }
            }
        },
        {
            "resource": {
                "id": "MedicationAdministration/16",
                "resourceType": "MedicationAdministration",
                "status": "completed",
                "prescription": {
                    "reference": "MedicationPrescription/15"
                },
                "contained": [
                    {
                        "id": "med",
                        "resourceType": "Medication",
                        "name": "lisinopril 10 mg",
                        "code": {
                            "coding": [
                                {
                                    "system": "http://www.nlm.nih.gov/research/umls/rxnorm",
                                    "code": "314076",
                                    "display": "lisinopril 10 mg"
                                }
                            ],
                            "text": "lisinopril 10 mg"
                        }
                    }
                ],
                "medication": {
                    "reference": "#med",
                    "display": "lisinopril 10 mg"
                },
                "patient": {
                    "reference": "Patient/0",
                    "display": "Teller, Maria"
                }
            }
        },
        {
            "resource": {
                "id": "MedicationPrescription/17",
                "resourceType": "MedicationPrescription",
                "status": "active",
                "contained": [
                    {
                        "id": "med",
                        "resourceType": "Medication",
                        "name": "glyBURIDE 5 mg",
                        "code": {
                            "coding": [
                                {
                                    "system": "http://www.nlm.nih.gov/research/umls/rxnorm",
                                    "code": "310537",
                                    "display": "glyBURIDE 5 mg"
                                }
                            ],
                            "text": "glyBURIDE 5 mg"
                        }
                    }
                ],
                "medication": {
                    "reference": "#med",
                    "display": "glyBURIDE 5 mg"
                },
                "patient": {
                    "reference": "Patient/0",
                    "display": "Teller, Maria"
                }
            }
        },
        {
            "resource": {
                "id": "MedicationAdministration/18",
                "resourceType": "MedicationAdministration",
                "status": "completed",
                "prescription": {
                    "reference": "MedicationPrescription/17"
                },
                "contained": [
                    {
                        "id": "med",
                        "resourceType": "Medication",
                        "name": "glyBURIDE 5 mg",
                        "code": {
                            "coding": [
                                {
                                    "system": "http://www.nlm.nih.gov/research/umls/rxnorm",
                                    "code": "310537",
                                    "display": "glyBURIDE 5 mg"
                                }
                            ],
                            "text": "glyBURIDE 5 mg"
                        }
                    }
                ],
                "medication": {
                    "reference": "#med",
                    "display": "glyBURIDE 5 mg"
                },
                "patient": {
                    "reference": "Patient/0",
                    "display": "Teller, Maria"
                }
            }
        },
        {
            "resource": {
                "id": "MedicationPrescription/19",
                "resourceType": "MedicationPrescription",
                "status": "active",
                "contained": [
                    {
                        "id": "med",
                        "resourceType": "Medication",
                        "name": "lovastatin 20 mg",
                        "code": {
                            "coding": [
                                {
                                    "system": "http://www.nlm.nih.gov/research/umls/rxnorm",
                                    "code": "197904",
                                    "display": "lovastatin 20 mg"
                                }
                            ],
                            "text": "lovastatin 20 mg"
                        }
                    }
                ],
                "medication": {
                    "reference": "#med",
                    "display": "lovastatin 20 mg"
                },
                "patient": {
                    "reference": "Patient/0",
                    "display": "Teller, Maria"
                }
            }
        },
        {
            "resource": {
                "id": "MedicationAdministration/20",
                "resourceType": "MedicationAdministration",
                "status": "completed",
                "prescription": {
                    "reference": "MedicationPrescription/19"
                },
                "contained": [
                    {
                        "id": "med",
                        "resourceType": "Medication",
                        "name": "lovastatin 20 mg",
                        "code": {
                            "coding": [
                                {
                                    "system": "http://www.nlm.nih.gov/research/umls/rxnorm",
                                    "code": "197904",
                                    "display": "lovastatin 20 mg"
                                }
                            ],
                            "text": "lovastatin 20 mg"
                        }
                    }
                ],
                "medication": {
                    "reference": "#med",
                    "display": "lovastatin 20 mg"
                },
                "patient": {
                    "reference": "Patient/0",
                    "display": "Teller, Maria"
                }
            }
        },
        {
            "resource": {
                "id": "MedicationPrescription/21",
                "resourceType": "MedicationPrescription",
                "status": "active",
                "dosageInstruction": [
                    {
                        "scheduledPeriod": {
                            "end": "2007-08-06"
                        }
                    }
                ],
                "contained": [
                    {
                        "id": "med",
                        "resourceType": "Medication",
                        "name": "metFORMIN 500 mg",
                        "code": {
                            "coding": [
                                {
                                    "system": "http://www.nlm.nih.gov/research/umls/rxnorm",
                                    "code": "861007",
                                    "display": "metFORMIN 500 mg"
                                }
                            ],
                            "text": "metFORMIN 500 mg"
                        }
                    }
                ],
                "medication": {
                    "reference": "#med",
                    "display": "metFORMIN 500 mg"
                },
                "patient": {
                    "reference": "Patient/0",
                    "display": "Teller, Maria"
                }
            }
        },
        {
            "resource": {
                "id": "MedicationAdministration/22",
                "resourceType": "MedicationAdministration",
                "status": "completed",
                "prescription": {
                    "reference": "MedicationPrescription/21"
                },
                "effectiveTimePeriod": {
                    "end": "2007-08-06"
                },
                "contained": [
                    {
                        "id": "med",
                        "resourceType": "Medication",
                        "name": "metFORMIN 500 mg",
                        "code": {
                            "coding": [
                                {
                                    "system": "http://www.nlm.nih.gov/research/umls/rxnorm",
                                    "code": "861007",
                                    "display": "metFORMIN 500 mg"
                                }
                            ],
                            "text": "metFORMIN 500 mg"
                        }
                    }
                ],
                "medication": {
                    "reference": "#med",
                    "display": "metFORMIN 500 mg"
                },
                "patient": {
                    "reference": "Patient/0",
                    "display": "Teller, Maria"
                }
            }
        }
    ]
}