{
    "resourceType": "Bundle",
    "totalResults": 23,
    "entry": [
        {
            "id": "Patient/some-id-here-1987",
            "content": {
                "resourceType": "Patient",
                "identifier": [
                    {
                        "system": "http://www.midea-tecg.com",
                        "value": "JOE_DOE_IDENTIFIER"
                    }
                ],
                "name": [
                    {
                        "family": [
                            "DOE"
                        ],
                        "given": [
                            "JOE"
                        ]
                    }
                ]
            }
        },
        {
            "id": "Observation/ed0128b3-e0ad-45ac-b6d1-e6b2c617a61f",
            "content": {
                "resourceType": "Observation",
                "name": {
                    "coding": [
                        {
                            "system": "http://loinc.org",
                            "code": "9279-1",
                            "display": "Respiratory Rate"
                        }
                    ],
                    "text": "Respiratory Rate"
                },
                "valueQuantity": {
                    "value": 0,
                    "units": "/min",
                    "code": "/min",
                    "system": "http://unitsofmeasure.org"
                },
                "issued": "2012-08-06",
                "status": "final",
                "reliability": "ok",
                "extension": [
                    {
                        "url": "http://amida.com/fhir/Profile/extensions#observation-type",
                        "valueCoding": {
                            "code": "8716-3",
                            "display": "Vital signs",
                            "system": "http://loinc.org"
                        }
                    }
                ],
                "subject": {
                    "reference": "Patient/some-id-here-1987",
                    "display": "DOE, JOE"
                }
            }
        },
        {
            "id": "Observation/61081a43-a1c0-4051-9dfa-8e844e2135eb",
            "content": {
                "resourceType": "Observation",
                "name": {
                    "coding": [
                        {
                            "system": "http://loinc.org",
                            "code": "8867-4",
                            "display": "Heart Rate"
                        }
                    ],
                    "text": "Heart Rate"
                },
                "valueQuantity": {
                    "value": 72,
                    "units": "/min",
                    "code": "/min",
                    "system": "http://unitsofmeasure.org"
                },
                "issued": "2012-08-06",
                "status": "final",
                "reliability": "ok",
                "extension": [
                    {
                        "url": "http://amida.com/fhir/Profile/extensions#observation-type",
                        "valueCoding": {
                            "code": "8716-3",
                            "display": "Vital signs",
                            "system": "http://loinc.org"
                        }
                    }
                ],
                "subject": {
                    "reference": "Patient/some-id-here-1987",
                    "display": "DOE, JOE"
                }
            }
        },
        {
            "id": "Observation/6e983bac-e90c-4b5f-b3cd-67ec8ddf10de",
            "content": {
                "resourceType": "Observation",
                "name": {
                    "coding": [
                        {
                            "system": "http://loinc.org",
                            "code": "8480-6",
                            "display": "Systolic BP"
                        }
                    ],
                    "text": "Systolic BP"
                },
                "valueQuantity": {
                    "value": 140,
                    "units": "mm[Hg]",
                    "code": "mm[Hg]",
                    "system": "http://unitsofmeasure.org"
                },
                "issued": "2012-08-06",
                "status": "final",
                "reliability": "ok",
                "extension": [
                    {
                        "url": "http://amida.com/fhir/Profile/extensions#observation-type",
                        "valueCoding": {
                            "code": "8716-3",
                            "display": "Vital signs",
                            "system": "http://loinc.org"
                        }
                    }
                ],
                "subject": {
                    "reference": "Patient/some-id-here-1987",
                    "display": "DOE, JOE"
                }
            }
        },
        {
            "id": "Observation/b8ab6877-aca1-40c7-8454-f66657855517",
            "content": {
                "resourceType": "Observation",
                "name": {
                    "coding": [
                        {
                            "system": "http://loinc.org",
                            "code": "8462-4",
                            "display": "Diastolic BP"
                        }
                    ],
                    "text": "Diastolic BP"
                },
                "valueQuantity": {
                    "value": 96,
                    "units": "mm[Hg]",
                    "code": "mm[Hg]",
                    "system": "http://unitsofmeasure.org"
                },
                "issued": "2012-08-06",
                "status": "final",
                "reliability": "ok",
                "extension": [
                    {
                        "url": "http://amida.com/fhir/Profile/extensions#observation-type",
                        "valueCoding": {
                            "code": "8716-3",
                            "display": "Vital signs",
                            "system": "http://loinc.org"
                        }
                    }
                ],
                "subject": {
                    "reference": "Patient/some-id-here-1987",
                    "display": "DOE, JOE"
                }
            }
        },
        {
            "id": "Observation/6622c3ca-6271-43f6-a8e0-f2e61ebfaf95",
            "content": {
                "resourceType": "Observation",
                "name": {
                    "coding": [
                        {
                            "system": "http://loinc.org",
                            "code": "8310-5",
                            "display": "Body Temperature"
                        }
                    ],
                    "text": "Body Temperature"
                },
                "valueQuantity": {
                    "value": 98.4,
                    "units": "[degF]",
                    "code": "[degF]",
                    "system": "http://unitsofmeasure.org"
                },
                "issued": "2012-08-06",
                "status": "final",
                "reliability": "ok",
                "extension": [
                    {
                        "url": "http://amida.com/fhir/Profile/extensions#observation-type",
                        "valueCoding": {
                            "code": "8716-3",
                            "display": "Vital signs",
                            "system": "http://loinc.org"
                        }
                    }
                ],
                "subject": {
                    "reference": "Patient/some-id-here-1987",
                    "display": "DOE, JOE"
                }
            }
        },
        {
            "id": "Observation/d09f980a-7f03-4a87-8971-7c23deb6a190",
            "content": {
                "resourceType": "Observation",
                "name": {
                    "coding": [
                        {
                            "system": "http://loinc.org",
                            "code": "8302-2",
                            "display": "Height"
                        }
                    ],
                    "text": "Height"
                },
                "valueQuantity": {
                    "value": 64,
                    "units": "[in_us]",
                    "code": "[in_us]",
                    "system": "http://unitsofmeasure.org"
                },
                "issued": "2012-08-06",
                "status": "final",
                "reliability": "ok",
                "extension": [
                    {
                        "url": "http://amida.com/fhir/Profile/extensions#observation-type",
                        "valueCoding": {
                            "code": "8716-3",
                            "display": "Vital signs",
                            "system": "http://loinc.org"
                        }
                    }
                ],
                "subject": {
                    "reference": "Patient/some-id-here-1987",
                    "display": "DOE, JOE"
                }
            }
        },
        {
            "id": "Observation/a006fa23-2318-4416-b2be-939539d4da0f",
            "content": {
                "resourceType": "Observation",
                "name": {
                    "coding": [
                        {
                            "system": "http://loinc.org",
                            "code": "8287-5",
                            "display": "Head Circumference"
                        }
                    ],
                    "text": "Head Circumference"
                },
                "valueQuantity": {
                    "value": 0,
                    "units": "[in_us]",
                    "code": "[in_us]",
                    "system": "http://unitsofmeasure.org"
                },
                "issued": "2012-08-06",
                "status": "final",
                "reliability": "ok",
                "extension": [
                    {
                        "url": "http://amida.com/fhir/Profile/extensions#observation-type",
                        "valueCoding": {
                            "code": "8716-3",
                            "display": "Vital signs",
                            "system": "http://loinc.org"
                        }
                    }
                ],
                "subject": {
                    "reference": "Patient/some-id-here-1987",
                    "display": "DOE, JOE"
                }
            }
        },
        {
            "id": "Observation/b293d70e-cd1e-4574-a685-e6ad36a8924e",
            "content": {
                "resourceType": "Observation",
                "name": {
                    "coding": [
                        {
                            "system": "http://loinc.org",
                            "code": "3141-9",
                            "display": "Weight Measured"
                        }
                    ],
                    "text": "Weight Measured"
                },
                "valueQuantity": {
                    "value": 192,
                    "units": "[lb_av]",
                    "code": "[lb_av]",
                    "system": "http://unitsofmeasure.org"
                },
                "issued": "2012-08-06",
                "status": "final",
                "reliability": "ok",
                "extension": [
                    {
                        "url": "http://amida.com/fhir/Profile/extensions#observation-type",
                        "valueCoding": {
                            "code": "8716-3",
                            "display": "Vital signs",
                            "system": "http://loinc.org"
                        }
                    }
                ],
                "subject": {
                    "reference": "Patient/some-id-here-1987",
                    "display": "DOE, JOE"
                }
            }
        },
        {
            "id": "Observation/8fdf6367-b6ee-4992-8246-de0d2088b837",
            "content": {
                "resourceType": "Observation",
                "name": {
                    "coding": [
                        {
                            "system": "http://loinc.org",
                            "code": "39156-5",
                            "display": "BMI (Body Mass Index)"
                        }
                    ],
                    "text": "BMI (Body Mass Index)"
                },
                "valueQuantity": {
                    "value": 32.9531,
                    "units": "kg/m2",
                    "code": "kg/m2",
                    "system": "http://unitsofmeasure.org"
                },
                "issued": "2012-08-06",
                "status": "final",
                "reliability": "ok",
                "extension": [
                    {
                        "url": "http://amida.com/fhir/Profile/extensions#observation-type",
                        "valueCoding": {
                            "code": "8716-3",
                            "display": "Vital signs",
                            "system": "http://loinc.org"
                        }
                    }
                ],
                "subject": {
                    "reference": "Patient/some-id-here-1987",
                    "display": "DOE, JOE"
                }
            }
        },
        {
            "id": "Observation/5f27f847-614c-4640-bf39-881c9240fc8d",
            "content": {
                "resourceType": "Observation",
                "name": {
                    "coding": [
                        {
                            "system": "http://loinc.org",
                            "code": "35094-2",
                            "display": "Blood pressure panel"
                        }
                    ],
                    "text": "Blood pressure panel"
                },
                "issued": "2012-08-06",
                "status": "final",
                "reliability": "ok",
                "extension": [
                    {
                        "url": "http://amida.com/fhir/Profile/extensions#observation-type",
                        "valueCoding": {
                            "code": "8716-3",
                            "display": "Vital signs",
                            "system": "http://loinc.org"
                        }
                    }
                ],
                "related": [
                    {
                        "type": "has-component",
                        "target": {
                            "reference": "Observation/6e983bac-e90c-4b5f-b3cd-67ec8ddf10de"
                        }
                    },
                    {
                        "type": "has-component",
                        "target": {
                            "reference": "Observation/b8ab6877-aca1-40c7-8454-f66657855517"
                        }
                    }
                ],
                "subject": {
                    "reference": "Patient/some-id-here-1987",
                    "display": "DOE, JOE"
                }
            }
        },
        {
            "id": "Observation/2bee0ea6-4489-403c-afa6-01155b11255f",
            "content": {
                "resourceType": "Observation",
                "name": {
                    "coding": [
                        {
                            "system": "http://loinc.org",
                            "code": "55418-8",
                            "display": "Weight and Height tracking panel"
                        }
                    ],
                    "text": "Weight and Height tracking panel"
                },
                "issued": "2012-08-06",
                "status": "final",
                "reliability": "ok",
                "extension": [
                    {
                        "url": "http://amida.com/fhir/Profile/extensions#observation-type",
                        "valueCoding": {
                            "code": "8716-3",
                            "display": "Vital signs",
                            "system": "http://loinc.org"
                        }
                    }
                ],
                "related": [
                    {
                        "type": "has-component",
                        "target": {
                            "reference": "Observation/d09f980a-7f03-4a87-8971-7c23deb6a190"
                        }
                    },
                    {
                        "type": "has-component",
                        "target": {
                            "reference": "Observation/b293d70e-cd1e-4574-a685-e6ad36a8924e"
                        }
                    },
                    {
                        "type": "has-component",
                        "target": {
                            "reference": "Observation/8fdf6367-b6ee-4992-8246-de0d2088b837"
                        }
                    }
                ],
                "subject": {
                    "reference": "Patient/some-id-here-1987",
                    "display": "DOE, JOE"
                }
            }
        },
        {
            "id": "Condition/2f075dcb-e725-4de5-9bac-5980745ce681",
            "content": {
                "resourceType": "Condition",
                "status": "confirmed",
                "code": {
                    "coding": [
                        {
                            "system": "urn:oid:2.16.840.1.113883.6.103",
                            "code": "401.1",
                            "display": "Hypertension, benign"
                        }
                    ],
                    "text": "Hypertension, benign"
                },
                "subject": {
                    "reference": "Patient/some-id-here-1987",
                    "display": "DOE, JOE"
                }
            }
        },
        {
            "id": "Condition/9797605c-74d8-4338-bd38-fd8eaa61987d",
            "content": {
                "resourceType": "Condition",
                "status": "confirmed",
                "code": {
                    "coding": [
                        {
                            "system": "urn:oid:2.16.840.1.113883.6.103",
                            "code": "272.2",
                            "display": "Hyperlipidemia, mixed"
                        }
                    ],
                    "text": "Hyperlipidemia, mixed"
                },
                "subject": {
                    "reference": "Patient/some-id-here-1987",
                    "display": "DOE, JOE"
                }
            }
        },
        {
            "id": "Condition/70edceac-5500-44fe-99f0-d1a6f13e40f3",
            "content": {
                "resourceType": "Condition",
                "status": "confirmed",
                "code": {
                    "coding": [
                        {
                            "system": "urn:oid:2.16.840.1.113883.6.103",
                            "code": "250.00",
                            "display": "Diabetes II, uncomplicated"
                        }
                    ],
                    "text": "Diabetes II, uncomplicated"
                },
                "subject": {
                    "reference": "Patient/some-id-here-1987",
                    "display": "DOE, JOE"
                }
            }
        },
        {
            "id": "MedicationPrescription/34efd56c-dda8-40f0-9f91-95ae5313b92a",
            "content": {
                "resourceType": "MedicationPrescription",
                "status": "active",
                "contained": [
                    {
                        "id": "med",
                        "resourceType": "Medication",
                        "name": "lisinopril 10 mg",
                        "code": {
                            "coding": [
                                {
                                    "system": "http://www.nlm.nih.gov/research/umls/rxnorm",
                                    "code": "314076",
                                    "display": "lisinopril 10 mg"
                                }
                            ],
                            "text": "lisinopril 10 mg"
                        }
                    }
                ],
                "medication": {
                    "reference": "#med",
                    "display": "lisinopril 10 mg"
                },
                "patient": {
                    "reference": "Patient/some-id-here-1987",
                    "display": "DOE, JOE"
                }
            }
        },
        {
            "id": "MedicationAdministration/ced4bf12-01b1-4d5c-9abd-1046a9c98e11",
            "content": {
                "resourceType": "MedicationAdministration",
                "status": "completed",
                "practitioner": {
                    "reference": "Practitioner/unknown",
                    "display": "Unknown"
                },
                "prescription": {
                    "reference": "MedicationPrescription/34efd56c-dda8-40f0-9f91-95ae5313b92a"
                },
                "contained": [
                    {
                        "id": "med",
                        "resourceType": "Medication",
                        "name": "lisinopril 10 mg",
                        "code": {
                            "coding": [
                                {
                                    "system": "http://www.nlm.nih.gov/research/umls/rxnorm",
                                    "code": "314076",
                                    "display": "lisinopril 10 mg"
                                }
                            ],
                            "text": "lisinopril 10 mg"
                        }
                    }
                ],
                "medication": {
                    "reference": "#med",
                    "display": "lisinopril 10 mg"
                },
                "patient": {
                    "reference": "Patient/some-id-here-1987",
                    "display": "DOE, JOE"
                }
            }
        },
        {
            "id": "MedicationPrescription/51137314-2e94-4641-b839-9aba1ad23a4a",
            "content": {
                "resourceType": "MedicationPrescription",
                "status": "active",
                "contained": [
                    {
                        "id": "med",
                        "resourceType": "Medication",
                        "name": "glyBURIDE 5 mg",
                        "code": {
                            "coding": [
                                {
                                    "system": "http://www.nlm.nih.gov/research/umls/rxnorm",
                                    "code": "310537",
                                    "display": "glyBURIDE 5 mg"
                                }
                            ],
                            "text": "glyBURIDE 5 mg"
                        }
                    }
                ],
                "medication": {
                    "reference": "#med",
                    "display": "glyBURIDE 5 mg"
                },
                "patient": {
                    "reference": "Patient/some-id-here-1987",
                    "display": "DOE, JOE"
                }
            }
        },
        {
            "id": "MedicationAdministration/0feb84fb-b1be-44c9-bdc2-47f73c5160cf",
            "content": {
                "resourceType": "MedicationAdministration",
                "status": "completed",
                "practitioner": {
                    "reference": "Practitioner/unknown",
                    "display": "Unknown"
                },
                "prescription": {
                    "reference": "MedicationPrescription/51137314-2e94-4641-b839-9aba1ad23a4a"
                },
                "contained": [
                    {
                        "id": "med",
                        "resourceType": "Medication",
                        "name": "glyBURIDE 5 mg",
                        "code": {
                            "coding": [
                                {
                                    "system": "http://www.nlm.nih.gov/research/umls/rxnorm",
                                    "code": "310537",
                                    "display": "glyBURIDE 5 mg"
                                }
                            ],
                            "text": "glyBURIDE 5 mg"
                        }
                    }
                ],
                "medication": {
                    "reference": "#med",
                    "display": "glyBURIDE 5 mg"
                },
                "patient": {
                    "reference": "Patient/some-id-here-1987",
                    "display": "DOE, JOE"
                }
            }
        },
        {
            "id": "MedicationPrescription/3e98b62e-f870-4bc6-a4a3-e204f2cb830c",
            "content": {
                "resourceType": "MedicationPrescription",
                "status": "active",
                "contained": [
                    {
                        "id": "med",
                        "resourceType": "Medication",
                        "name": "lovastatin 20 mg",
                        "code": {
                            "coding": [
                                {
                                    "system": "http://www.nlm.nih.gov/research/umls/rxnorm",
                                    "code": "197904",
                                    "display": "lovastatin 20 mg"
                                }
                            ],
                            "text": "lovastatin 20 mg"
                        }
                    }
                ],
                "medication": {
                    "reference": "#med",
                    "display": "lovastatin 20 mg"
                },
                "patient": {
                    "reference": "Patient/some-id-here-1987",
                    "display": "DOE, JOE"
                }
            }
        },
        {
            "id": "MedicationAdministration/66f40c43-5bfb-475a-bcc9-9ba7d7391d30",
            "content": {
                "resourceType": "MedicationAdministration",
                "status": "completed",
                "practitioner": {
                    "reference": "Practitioner/unknown",
                    "display": "Unknown"
                },
                "prescription": {
                    "reference": "MedicationPrescription/3e98b62e-f870-4bc6-a4a3-e204f2cb830c"
                },
                "contained": [
                    {
                        "id": "med",
                        "resourceType": "Medication",
                        "name": "lovastatin 20 mg",
                        "code": {
                            "coding": [
                                {
                                    "system": "http://www.nlm.nih.gov/research/umls/rxnorm",
                                    "code": "197904",
                                    "display": "lovastatin 20 mg"
                                }
                            ],
                            "text": "lovastatin 20 mg"
                        }
                    }
                ],
                "medication": {
                    "reference": "#med",
                    "display": "lovastatin 20 mg"
                },
                "patient": {
                    "reference": "Patient/some-id-here-1987",
                    "display": "DOE, JOE"
                }
            }
        },
        {
            "id": "MedicationPrescription/faf7c280-4540-4d5f-95d4-bd87f894448c",
            "content": {
                "resourceType": "MedicationPrescription",
                "status": "active",
                "dosageInstruction": [
                    {
                        "timingPeriod": {
                            "end": "2007-08-06"
                        }
                    }
                ],
                "contained": [
                    {
                        "id": "med",
                        "resourceType": "Medication",
                        "name": "metFORMIN 500 mg",
                        "code": {
                            "coding": [
                                {
                                    "system": "http://www.nlm.nih.gov/research/umls/rxnorm",
                                    "code": "861007",
                                    "display": "metFORMIN 500 mg"
                                }
                            ],
                            "text": "metFORMIN 500 mg"
                        }
                    }
                ],
                "medication": {
                    "reference": "#med",
                    "display": "metFORMIN 500 mg"
                },
                "patient": {
                    "reference": "Patient/some-id-here-1987",
                    "display": "DOE, JOE"
                }
            }
        },
        {
            "id": "MedicationAdministration/ffed8d35-3c8f-4a2b-9d05-685272480e96",
            "content": {
                "resourceType": "MedicationAdministration",
                "status": "completed",
                "practitioner": {
                    "reference": "Practitioner/unknown",
                    "display": "Unknown"
                },
                "whenGiven": {
                    "end": "2007-08-06"
                },
                "dosage": [
                    {
                        "timingPeriod": {
                            "end": "2007-08-06"
                        }
                    }
                ],
                "prescription": {
                    "reference": "MedicationPrescription/faf7c280-4540-4d5f-95d4-bd87f894448c"
                },
                "contained": [
                    {
                        "id": "med",
                        "resourceType": "Medication",
                        "name": "metFORMIN 500 mg",
                        "code": {
                            "coding": [
                                {
                                    "system": "http://www.nlm.nih.gov/research/umls/rxnorm",
                                    "code": "861007",
                                    "display": "metFORMIN 500 mg"
                                }
                            ],
                            "text": "metFORMIN 500 mg"
                        }
                    }
                ],
                "medication": {
                    "reference": "#med",
                    "display": "metFORMIN 500 mg"
                },
                "patient": {
                    "reference": "Patient/some-id-here-1987",
                    "display": "DOE, JOE"
                }
            }
        }
    ]
}