{
    "resourceType": "Bundle",
    "totalResults": 7,
    "entry": [
        {
            "id": "Patient/0",
            "content": {
                "resourceType": "Patient",
                "identifier": [
                    {
                        "system": "urn:oid:2.16.840.1.113883.3.13.300.1.1.2.1",
                        "value": "9473"
                    }
                ],
                "name": {
                    "family": [
                        "Wade"
                    ],
                    "given": [
                        "Victoria",
                        "E"
                    ]
                },
                "telecom": [
                    {
                        "system": "phone",
                        "value": "+13093548275",
                        "use": "home"
                    }
                ],
                "gender": {
                    "coding": [
                        {
                            "system": "http://hl7.org/fhir/v3/AdministrativeGender",
                            "code": "F",
                            "display": "Female"
                        }
                    ],
                    "text": "Female"
                },
                "birthdate": "1954-03-23",
                "address": [
                    {
                        "use": "home",
                        "line": [
                            "266 York Street"
                        ],
                        "city": "Morton",
                        "state": "IL",
                        "zip": "61550-",
                        "country": "US"
                    }
                ]
            }
        },
        {
            "id": "MedicationPrescription/1",
            "content": {
                "resourceType": "MedicationPrescription",
                "status": "active",
                "dateWritten": "2008-09-22T13:58:00.000Z",
                "dosageInstruction": [
                    {
                        "route": {
                            "coding": [
                                {
                                    "system": "urn:oid:2.16.840.1.113883.3.26.1.1",
                                    "code": "C38288",
                                    "display": "Oral"
                                }
                            ],
                            "text": "Oral"
                        },
                        "doseQuantity": {
                            "value": 1
                        },
                        "timingPeriod": {
                            "start": "2008-09-22T13:58:00.000Z"
                        }
                    }
                ],
                "text": {
                    "status": "generated",
                    "div": "= 1 cap(s), PO, Once Daily, 10 cap(s)"
                },
                "contained": [
                    {
                        "id": "med",
                        "resourceType": "Medication",
                        "name": "????",
                        "code": {
                            "coding": [
                                {
                                    "system": "http://www.nlm.nih.gov/research/umls/rxnorm",
                                    "code": "314076",
                                    "display": "????"
                                }
                            ],
                            "text": "????"
                        }
                    }
                ],
                "medication": {
                    "reference": "#med",
                    "display": "????"
                },
                "patient": {
                    "reference": "Patient/0",
                    "display": ", "
                }
            }
        },
        {
            "id": "MedicationPrescription/2",
            "content": {
                "resourceType": "MedicationPrescription",
                "status": "active",
                "dateWritten": "2007-08-14T13:59:00.000Z",
                "dosageInstruction": [
                    {
                        "route": {
                            "coding": [
                                {
                                    "system": "urn:oid:2.16.840.1.113883.3.26.1.1",
                                    "code": "C38288",
                                    "display": "Oral"
                                }
                            ],
                            "text": "Oral"
                        },
                        "doseQuantity": {
                            "value": 2
                        },
                        "timingPeriod": {
                            "start": "2007-08-14T13:59:00.000Z"
                        }
                    }
                ],
                "text": {
                    "status": "generated",
                    "div": "2 puff(s), INH, QID, 14 g"
                },
                "contained": [
                    {
                        "id": "med",
                        "resourceType": "Medication",
                        "name": "????",
                        "code": {
                            "coding": [
                                {
                                    "system": "http://www.nlm.nih.gov/research/umls/rxnorm",
                                    "code": "617310",
                                    "display": "????"
                                }
                            ],
                            "text": "????"
                        }
                    }
                ],
                "medication": {
                    "reference": "#med",
                    "display": "????"
                },
                "patient": {
                    "reference": "Patient/0",
                    "display": ", "
                }
            }
        },
        {
            "id": "MedicationPrescription/3",
            "content": {
                "resourceType": "MedicationPrescription",
                "status": "active",
                "dateWritten": "2009-07-15T13:58:00.000Z",
                "dosageInstruction": [
                    {
                        "route": {
                            "coding": [
                                {
                                    "system": "urn:oid:2.16.840.1.113883.3.26.1.1",
                                    "code": "C38288",
                                    "display": "Oral"
                                }
                            ],
                            "text": "Oral"
                        },
                        "doseQuantity": {
                            "value": 75
                        },
                        "timingPeriod": {
                            "start": "2009-07-15T13:58:00.000Z"
                        }
                    }
                ],
                "text": {
                    "status": "generated",
                    "div": "75 mg = 1 tab(s), PO, Once Daily, 30 tab(s)"
                },
                "patient": {
                    "reference": "Patient/0",
                    "display": ", "
                }
            }
        },
        {
            "id": "MedicationPrescription/4",
            "content": {
                "resourceType": "MedicationPrescription",
                "status": "active",
                "dateWritten": "2009-07-15T13:58:00.000Z",
                "dosageInstruction": [
                    {
                        "route": {
                            "coding": [
                                {
                                    "system": "urn:oid:2.16.840.1.113883.3.26.1.1",
                                    "code": "C38288",
                                    "display": "Oral"
                                }
                            ],
                            "text": "Oral"
                        },
                        "doseQuantity": {
                            "value": 5
                        },
                        "timingPeriod": {
                            "start": "2009-07-15T13:58:00.000Z"
                        }
                    }
                ],
                "text": {
                    "status": "generated",
                    "div": "5 mg = 1 tab(s), PO, Once Daily, 30 tab(s)"
                },
                "patient": {
                    "reference": "Patient/0",
                    "display": ", "
                }
            }
        },
        {
            "id": "MedicationPrescription/5",
            "content": {
                "resourceType": "MedicationPrescription",
                "status": "active",
                "dateWritten": "2006-05-16T13:59:00.000Z",
                "dosageInstruction": [
                    {
                        "route": {
                            "coding": [
                                {
                                    "system": "urn:oid:2.16.840.1.113883.3.26.1.1",
                                    "code": "C38288",
                                    "display": "Oral"
                                }
                            ],
                            "text": "Oral"
                        },
                        "doseQuantity": {
                            "value": 0.1
                        },
                        "timingPeriod": {
                            "start": "2006-05-16T13:59:00.000Z"
                        }
                    }
                ],
                "text": {
                    "status": "generated",
                    "div": "0.1 mg = 1 tab(s), PO, BID, 180 tab(s)"
                },
                "patient": {
                    "reference": "Patient/0",
                    "display": ", "
                }
            }
        },
        {
            "id": "MedicationPrescription/6",
            "content": {
                "resourceType": "MedicationPrescription",
                "status": "active",
                "dateWritten": "2009-07-15T13:57:00.000Z",
                "dosageInstruction": [
                    {
                        "route": {
                            "coding": [
                                {
                                    "system": "urn:oid:2.16.840.1.113883.3.26.1.1",
                                    "code": "C38288",
                                    "display": "Oral"
                                }
                            ],
                            "text": "Oral"
                        },
                        "doseQuantity": {
                            "value": 30
                        },
                        "timingPeriod": {
                            "start": "2009-07-15T13:57:00.000Z"
                        }
                    }
                ],
                "text": {
                    "status": "generated",
                    "div": "30 mg = 1 tab(s), PO, Once Daily, 30 tab(s)"
                },
                "patient": {
                    "reference": "Patient/0",
                    "display": ", "
                }
            }
        }
    ]
}