{
    "resourceType": "Bundle",
    "totalResults": 9,
    "entry": [
        {
            "id": "Patient/some-id-here-1987",
            "content": {
                "resourceType": "Patient",
                "identifier": [
                    {
                        "system": "http://www.midea-tecg.com",
                        "value": "JOE_DOE_IDENTIFIER"
                    }
                ],
                "name": [
                    {
                        "family": [
                            "DOE"
                        ],
                        "given": [
                            "JOE"
                        ]
                    }
                ]
            }
        },
        {
            "id": "MedicationPrescription/b8b29e56-a25b-40c9-9dfe-4b85d6571fbf",
            "content": {
                "resourceType": "MedicationPrescription",
                "status": "active",
                "dateWritten": "2008-09-22T13:58:00.000Z",
                "dosageInstruction": [
                    {
                        "route": {
                            "coding": [
                                {
                                    "system": "urn:oid:2.16.840.1.113883.3.26.1.1",
                                    "code": "C38288",
                                    "display": "Oral"
                                }
                            ],
                            "text": "Oral"
                        },
                        "doseQuantity": {
                            "value": 1
                        },
                        "timingPeriod": {
                            "start": "2008-09-22T13:58:00.000Z"
                        }
                    }
                ],
                "text": {
                    "status": "generated",
                    "div": "= 1 cap(s), PO, Once Daily, 10 cap(s)"
                },
                "medication": {
                    "reference": "Medication/d9948929-f788-4b42-ac8d-171e35d0d8a4",
                    "display": "????"
                },
                "patient": {
                    "reference": "Patient/some-id-here-1987",
                    "display": "DOE, JOE"
                }
            }
        },
        {
            "id": "MedicationPrescription/7163f580-241b-426c-b6fd-8c7584457bbf",
            "content": {
                "resourceType": "MedicationPrescription",
                "status": "active",
                "dateWritten": "2007-08-14T13:59:00.000Z",
                "dosageInstruction": [
                    {
                        "route": {
                            "coding": [
                                {
                                    "system": "urn:oid:2.16.840.1.113883.3.26.1.1",
                                    "code": "C38288",
                                    "display": "Oral"
                                }
                            ],
                            "text": "Oral"
                        },
                        "doseQuantity": {
                            "value": 2
                        },
                        "timingPeriod": {
                            "start": "2007-08-14T13:59:00.000Z"
                        }
                    }
                ],
                "text": {
                    "status": "generated",
                    "div": "2 puff(s), INH, QID, 14 g"
                },
                "medication": {
                    "reference": "Medication/2bbd2c7b-e133-411b-be41-2978c1bad2e9",
                    "display": "????"
                },
                "patient": {
                    "reference": "Patient/some-id-here-1987",
                    "display": "DOE, JOE"
                }
            }
        },
        {
            "id": "MedicationPrescription/72a0902b-773e-4b4b-b605-9827b1121c32",
            "content": {
                "resourceType": "MedicationPrescription",
                "status": "active",
                "dateWritten": "2009-07-15T13:58:00.000Z",
                "dosageInstruction": [
                    {
                        "route": {
                            "coding": [
                                {
                                    "system": "urn:oid:2.16.840.1.113883.3.26.1.1",
                                    "code": "C38288",
                                    "display": "Oral"
                                }
                            ],
                            "text": "Oral"
                        },
                        "doseQuantity": {
                            "value": 75
                        },
                        "timingPeriod": {
                            "start": "2009-07-15T13:58:00.000Z"
                        }
                    }
                ],
                "text": {
                    "status": "generated",
                    "div": "75 mg = 1 tab(s), PO, Once Daily, 30 tab(s)"
                },
                "patient": {
                    "reference": "Patient/some-id-here-1987",
                    "display": "DOE, JOE"
                }
            }
        },
        {
            "id": "MedicationPrescription/de29b026-d83c-4fbf-8478-907fc57c1abe",
            "content": {
                "resourceType": "MedicationPrescription",
                "status": "active",
                "dateWritten": "2009-07-15T13:58:00.000Z",
                "dosageInstruction": [
                    {
                        "route": {
                            "coding": [
                                {
                                    "system": "urn:oid:2.16.840.1.113883.3.26.1.1",
                                    "code": "C38288",
                                    "display": "Oral"
                                }
                            ],
                            "text": "Oral"
                        },
                        "doseQuantity": {
                            "value": 5
                        },
                        "timingPeriod": {
                            "start": "2009-07-15T13:58:00.000Z"
                        }
                    }
                ],
                "text": {
                    "status": "generated",
                    "div": "5 mg = 1 tab(s), PO, Once Daily, 30 tab(s)"
                },
                "patient": {
                    "reference": "Patient/some-id-here-1987",
                    "display": "DOE, JOE"
                }
            }
        },
        {
            "id": "MedicationPrescription/6e7224ac-3053-4e1e-9783-548d8259ea9c",
            "content": {
                "resourceType": "MedicationPrescription",
                "status": "active",
                "dateWritten": "2006-05-16T13:59:00.000Z",
                "dosageInstruction": [
                    {
                        "route": {
                            "coding": [
                                {
                                    "system": "urn:oid:2.16.840.1.113883.3.26.1.1",
                                    "code": "C38288",
                                    "display": "Oral"
                                }
                            ],
                            "text": "Oral"
                        },
                        "doseQuantity": {
                            "value": 0.1
                        },
                        "timingPeriod": {
                            "start": "2006-05-16T13:59:00.000Z"
                        }
                    }
                ],
                "text": {
                    "status": "generated",
                    "div": "0.1 mg = 1 tab(s), PO, BID, 180 tab(s)"
                },
                "patient": {
                    "reference": "Patient/some-id-here-1987",
                    "display": "DOE, JOE"
                }
            }
        },
        {
            "id": "MedicationPrescription/a0e9f322-d344-4110-8602-c515637f108e",
            "content": {
                "resourceType": "MedicationPrescription",
                "status": "active",
                "dateWritten": "2009-07-15T13:57:00.000Z",
                "dosageInstruction": [
                    {
                        "route": {
                            "coding": [
                                {
                                    "system": "urn:oid:2.16.840.1.113883.3.26.1.1",
                                    "code": "C38288",
                                    "display": "Oral"
                                }
                            ],
                            "text": "Oral"
                        },
                        "doseQuantity": {
                            "value": 30
                        },
                        "timingPeriod": {
                            "start": "2009-07-15T13:57:00.000Z"
                        }
                    }
                ],
                "text": {
                    "status": "generated",
                    "div": "30 mg = 1 tab(s), PO, Once Daily, 30 tab(s)"
                },
                "patient": {
                    "reference": "Patient/some-id-here-1987",
                    "display": "DOE, JOE"
                }
            }
        },
        {
            "id": "Medication/d9948929-f788-4b42-ac8d-171e35d0d8a4",
            "content": {
                "resourceType": "Medication",
                "name": "????",
                "code": {
                    "coding": [
                        {
                            "system": "http://www.nlm.nih.gov/research/umls/rxnorm",
                            "code": "314076",
                            "display": "????"
                        }
                    ],
                    "text": "????"
                }
            }
        },
        {
            "id": "Medication/2bbd2c7b-e133-411b-be41-2978c1bad2e9",
            "content": {
                "resourceType": "Medication",
                "name": "????",
                "code": {
                    "coding": [
                        {
                            "system": "http://www.nlm.nih.gov/research/umls/rxnorm",
                            "code": "617310",
                            "display": "????"
                        }
                    ],
                    "text": "????"
                }
            }
        }
    ]
}