{
    "resourceType": "Bundle",
    "totalResults": 7,
    "entry": [
        {
            "id": "Patient/some-id-here-1987",
            "content": {
                "resourceType": "Patient",
                "identifier": [
                    {
                        "system": "http://www.midea-tecg.com",
                        "value": "JOE_DOE_IDENTIFIER"
                    }
                ],
                "name": [
                    {
                        "family": [
                            "DOE"
                        ],
                        "given": [
                            "JOE"
                        ]
                    }
                ]
            }
        },
        {
            "id": "MedicationPrescription/6ff345ad-e4d2-472b-a100-b8020049d145",
            "content": {
                "resourceType": "MedicationPrescription",
                "status": "active",
                "dateWritten": "2008-09-22T13:58:00.000Z",
                "dosageInstruction": [
                    {
                        "route": {
                            "coding": [
                                {
                                    "system": "urn:oid:2.16.840.1.113883.3.26.1.1",
                                    "code": "C38288",
                                    "display": "Oral"
                                }
                            ],
                            "text": "Oral"
                        },
                        "doseQuantity": {
                            "value": 1
                        },
                        "timingPeriod": {
                            "start": "2008-09-22T13:58:00.000Z"
                        }
                    }
                ],
                "text": {
                    "status": "generated",
                    "div": "= 1 cap(s), PO, Once Daily, 10 cap(s)"
                },
                "contained": [
                    {
                        "id": "med",
                        "resourceType": "Medication",
                        "name": "????",
                        "code": {
                            "coding": [
                                {
                                    "system": "http://www.nlm.nih.gov/research/umls/rxnorm",
                                    "code": "314076",
                                    "display": "????"
                                }
                            ],
                            "text": "????"
                        }
                    }
                ],
                "medication": {
                    "reference": "#med",
                    "display": "????"
                },
                "patient": {
                    "reference": "Patient/some-id-here-1987",
                    "display": "DOE, JOE"
                }
            }
        },
        {
            "id": "MedicationPrescription/7b0304ed-7fc5-4137-8e73-b54ed753cd7b",
            "content": {
                "resourceType": "MedicationPrescription",
                "status": "active",
                "dateWritten": "2007-08-14T13:59:00.000Z",
                "dosageInstruction": [
                    {
                        "route": {
                            "coding": [
                                {
                                    "system": "urn:oid:2.16.840.1.113883.3.26.1.1",
                                    "code": "C38288",
                                    "display": "Oral"
                                }
                            ],
                            "text": "Oral"
                        },
                        "doseQuantity": {
                            "value": 2
                        },
                        "timingPeriod": {
                            "start": "2007-08-14T13:59:00.000Z"
                        }
                    }
                ],
                "text": {
                    "status": "generated",
                    "div": "2 puff(s), INH, QID, 14 g"
                },
                "contained": [
                    {
                        "id": "med",
                        "resourceType": "Medication",
                        "name": "????",
                        "code": {
                            "coding": [
                                {
                                    "system": "http://www.nlm.nih.gov/research/umls/rxnorm",
                                    "code": "617310",
                                    "display": "????"
                                }
                            ],
                            "text": "????"
                        }
                    }
                ],
                "medication": {
                    "reference": "#med",
                    "display": "????"
                },
                "patient": {
                    "reference": "Patient/some-id-here-1987",
                    "display": "DOE, JOE"
                }
            }
        },
        {
            "id": "MedicationPrescription/8b7586f8-0d59-4c06-a318-264831619a01",
            "content": {
                "resourceType": "MedicationPrescription",
                "status": "active",
                "dateWritten": "2009-07-15T13:58:00.000Z",
                "dosageInstruction": [
                    {
                        "route": {
                            "coding": [
                                {
                                    "system": "urn:oid:2.16.840.1.113883.3.26.1.1",
                                    "code": "C38288",
                                    "display": "Oral"
                                }
                            ],
                            "text": "Oral"
                        },
                        "doseQuantity": {
                            "value": 75
                        },
                        "timingPeriod": {
                            "start": "2009-07-15T13:58:00.000Z"
                        }
                    }
                ],
                "text": {
                    "status": "generated",
                    "div": "75 mg = 1 tab(s), PO, Once Daily, 30 tab(s)"
                },
                "patient": {
                    "reference": "Patient/some-id-here-1987",
                    "display": "DOE, JOE"
                }
            }
        },
        {
            "id": "MedicationPrescription/e261f66a-aec5-4077-af8f-fc5f4a0ea54d",
            "content": {
                "resourceType": "MedicationPrescription",
                "status": "active",
                "dateWritten": "2009-07-15T13:58:00.000Z",
                "dosageInstruction": [
                    {
                        "route": {
                            "coding": [
                                {
                                    "system": "urn:oid:2.16.840.1.113883.3.26.1.1",
                                    "code": "C38288",
                                    "display": "Oral"
                                }
                            ],
                            "text": "Oral"
                        },
                        "doseQuantity": {
                            "value": 5
                        },
                        "timingPeriod": {
                            "start": "2009-07-15T13:58:00.000Z"
                        }
                    }
                ],
                "text": {
                    "status": "generated",
                    "div": "5 mg = 1 tab(s), PO, Once Daily, 30 tab(s)"
                },
                "patient": {
                    "reference": "Patient/some-id-here-1987",
                    "display": "DOE, JOE"
                }
            }
        },
        {
            "id": "MedicationPrescription/c008e555-cf4c-44c9-a522-fcd8b504b228",
            "content": {
                "resourceType": "MedicationPrescription",
                "status": "active",
                "dateWritten": "2006-05-16T13:59:00.000Z",
                "dosageInstruction": [
                    {
                        "route": {
                            "coding": [
                                {
                                    "system": "urn:oid:2.16.840.1.113883.3.26.1.1",
                                    "code": "C38288",
                                    "display": "Oral"
                                }
                            ],
                            "text": "Oral"
                        },
                        "doseQuantity": {
                            "value": 0.1
                        },
                        "timingPeriod": {
                            "start": "2006-05-16T13:59:00.000Z"
                        }
                    }
                ],
                "text": {
                    "status": "generated",
                    "div": "0.1 mg = 1 tab(s), PO, BID, 180 tab(s)"
                },
                "patient": {
                    "reference": "Patient/some-id-here-1987",
                    "display": "DOE, JOE"
                }
            }
        },
        {
            "id": "MedicationPrescription/5416bf19-99b6-4f59-8e89-8c4f0aaa4dad",
            "content": {
                "resourceType": "MedicationPrescription",
                "status": "active",
                "dateWritten": "2009-07-15T13:57:00.000Z",
                "dosageInstruction": [
                    {
                        "route": {
                            "coding": [
                                {
                                    "system": "urn:oid:2.16.840.1.113883.3.26.1.1",
                                    "code": "C38288",
                                    "display": "Oral"
                                }
                            ],
                            "text": "Oral"
                        },
                        "doseQuantity": {
                            "value": 30
                        },
                        "timingPeriod": {
                            "start": "2009-07-15T13:57:00.000Z"
                        }
                    }
                ],
                "text": {
                    "status": "generated",
                    "div": "30 mg = 1 tab(s), PO, Once Daily, 30 tab(s)"
                },
                "patient": {
                    "reference": "Patient/some-id-here-1987",
                    "display": "DOE, JOE"
                }
            }
        }
    ]
}