{
    "resourceType": "Bundle",
    "totalResults": 11,
    "entry": [
        {
            "id": "Patient/some-id-here-1987",
            "content": {
                "resourceType": "Patient",
                "identifier": [
                    {
                        "system": "http://www.midea-tecg.com",
                        "value": "JOE_DOE_IDENTIFIER"
                    }
                ],
                "name": [
                    {
                        "family": [
                            "DOE"
                        ],
                        "given": [
                            "JOE"
                        ]
                    }
                ]
            }
        },
        {
            "id": "MedicationPrescription/3ae41d16-c877-4c17-b7b5-cea37a4583d1",
            "content": {
                "resourceType": "MedicationPrescription",
                "status": "active",
                "dateWritten": "2008-09-22T13:58:00.000Z",
                "dosageInstruction": [
                    {
                        "route": {
                            "coding": [
                                {
                                    "system": "urn:oid:2.16.840.1.113883.3.26.1.1",
                                    "code": "C38288",
                                    "display": "Oral"
                                }
                            ],
                            "text": "Oral"
                        },
                        "doseQuantity": {
                            "value": 1
                        },
                        "timingPeriod": {
                            "start": "2008-09-22T13:58:00.000Z"
                        }
                    }
                ],
                "text": {
                    "status": "generated",
                    "div": "= 1 cap(s), PO, Once Daily, 10 cap(s)"
                },
                "medication": {
                    "reference": "Medication/49662e3a-783c-4a0b-9062-7ccfbbd5c880",
                    "display": "lisinopril 10 mg oral tablet"
                },
                "patient": {
                    "reference": "Patient/some-id-here-1987",
                    "display": "DOE, JOE"
                }
            }
        },
        {
            "id": "MedicationPrescription/c6b7de25-bd1e-411a-b053-ef410770b535",
            "content": {
                "resourceType": "MedicationPrescription",
                "status": "active",
                "dateWritten": "2007-08-14T13:59:00.000Z",
                "dosageInstruction": [
                    {
                        "route": {
                            "coding": [
                                {
                                    "system": "urn:oid:2.16.840.1.113883.3.26.1.1",
                                    "code": "C38288",
                                    "display": "Oral"
                                }
                            ],
                            "text": "Oral"
                        },
                        "doseQuantity": {
                            "value": 2
                        },
                        "timingPeriod": {
                            "start": "2007-08-14T13:59:00.000Z"
                        }
                    }
                ],
                "text": {
                    "status": "generated",
                    "div": "2 puff(s), INH, QID, 14 g"
                },
                "medication": {
                    "reference": "Medication/566df6f1-d670-4e04-a82d-030f7455ec50",
                    "display": "Lipitor 20 mg oral tablet"
                },
                "patient": {
                    "reference": "Patient/some-id-here-1987",
                    "display": "DOE, JOE"
                }
            }
        },
        {
            "id": "MedicationPrescription/1d29bd10-ec36-42be-8b4a-62a20db400a6",
            "content": {
                "resourceType": "MedicationPrescription",
                "status": "active",
                "dateWritten": "2009-07-15T13:58:00.000Z",
                "dosageInstruction": [
                    {
                        "route": {
                            "coding": [
                                {
                                    "system": "urn:oid:2.16.840.1.113883.3.26.1.1",
                                    "code": "C38288",
                                    "display": "Oral"
                                }
                            ],
                            "text": "Oral"
                        },
                        "doseQuantity": {
                            "value": 75
                        },
                        "timingPeriod": {
                            "start": "2009-07-15T13:58:00.000Z"
                        }
                    }
                ],
                "text": {
                    "status": "generated",
                    "div": "75 mg = 1 tab(s), PO, Once Daily, 30 tab(s)"
                },
                "patient": {
                    "reference": "Patient/some-id-here-1987",
                    "display": "DOE, JOE"
                }
            }
        },
        {
            "id": "MedicationPrescription/83fd6e89-0e47-4d57-a5af-6570dc66c989",
            "content": {
                "resourceType": "MedicationPrescription",
                "status": "active",
                "dateWritten": "2009-07-15T13:58:00.000Z",
                "dosageInstruction": [
                    {
                        "route": {
                            "coding": [
                                {
                                    "system": "urn:oid:2.16.840.1.113883.3.26.1.1",
                                    "code": "C38288",
                                    "display": "Oral"
                                }
                            ],
                            "text": "Oral"
                        },
                        "doseQuantity": {
                            "value": 5
                        },
                        "timingPeriod": {
                            "start": "2009-07-15T13:58:00.000Z"
                        }
                    }
                ],
                "text": {
                    "status": "generated",
                    "div": "5 mg = 1 tab(s), PO, Once Daily, 30 tab(s)"
                },
                "patient": {
                    "reference": "Patient/some-id-here-1987",
                    "display": "DOE, JOE"
                }
            }
        },
        {
            "id": "MedicationPrescription/40160893-96b5-4cec-93a7-5b480595e7f6",
            "content": {
                "resourceType": "MedicationPrescription",
                "status": "active",
                "dateWritten": "2006-05-16T13:59:00.000Z",
                "dosageInstruction": [
                    {
                        "route": {
                            "coding": [
                                {
                                    "system": "urn:oid:2.16.840.1.113883.3.26.1.1",
                                    "code": "C38288",
                                    "display": "Oral"
                                }
                            ],
                            "text": "Oral"
                        },
                        "doseQuantity": {
                            "value": 0.1
                        },
                        "timingPeriod": {
                            "start": "2006-05-16T13:59:00.000Z"
                        }
                    }
                ],
                "text": {
                    "status": "generated",
                    "div": "0.1 mg = 1 tab(s), PO, BID, 180 tab(s)"
                },
                "medication": {
                    "reference": "Medication/a41276f3-5eb1-4b8b-8672-4f47a9be4bc9",
                    "display": "Catapres 0.1 mg oral tablet"
                },
                "patient": {
                    "reference": "Patient/some-id-here-1987",
                    "display": "DOE, JOE"
                }
            }
        },
        {
            "id": "MedicationPrescription/4a38f4cd-56fc-43cb-952b-d4193524d086",
            "content": {
                "resourceType": "MedicationPrescription",
                "status": "active",
                "dateWritten": "2009-07-15T13:57:00.000Z",
                "dosageInstruction": [
                    {
                        "route": {
                            "coding": [
                                {
                                    "system": "urn:oid:2.16.840.1.113883.3.26.1.1",
                                    "code": "C38288",
                                    "display": "Oral"
                                }
                            ],
                            "text": "Oral"
                        },
                        "doseQuantity": {
                            "value": 30
                        },
                        "timingPeriod": {
                            "start": "2009-07-15T13:57:00.000Z"
                        }
                    }
                ],
                "text": {
                    "status": "generated",
                    "div": "30 mg = 1 tab(s), PO, Once Daily, 30 tab(s)"
                },
                "medication": {
                    "reference": "Medication/e1677554-d6d6-46dc-b99c-878ad1365264",
                    "display": "Zestril 30 mg oral tablet"
                },
                "patient": {
                    "reference": "Patient/some-id-here-1987",
                    "display": "DOE, JOE"
                }
            }
        },
        {
            "id": "Medication/49662e3a-783c-4a0b-9062-7ccfbbd5c880",
            "content": {
                "resourceType": "Medication",
                "name": "lisinopril 10 mg oral tablet",
                "code": {
                    "coding": [
                        {
                            "system": "http://www.nlm.nih.gov/research/umls/rxnorm",
                            "code": "314076",
                            "display": "????"
                        }
                    ],
                    "text": "????"
                }
            }
        },
        {
            "id": "Medication/566df6f1-d670-4e04-a82d-030f7455ec50",
            "content": {
                "resourceType": "Medication",
                "name": "Lipitor 20 mg oral tablet",
                "code": {
                    "coding": [
                        {
                            "system": "http://www.nlm.nih.gov/research/umls/rxnorm",
                            "code": "617310",
                            "display": "????"
                        }
                    ],
                    "text": "????"
                }
            }
        },
        {
            "id": "Medication/a41276f3-5eb1-4b8b-8672-4f47a9be4bc9",
            "content": {
                "resourceType": "Medication",
                "name": "Catapres 0.1 mg oral tablet"
            }
        },
        {
            "id": "Medication/e1677554-d6d6-46dc-b99c-878ad1365264",
            "content": {
                "resourceType": "Medication",
                "name": "Zestril 30 mg oral tablet"
            }
        }
    ]
}