{
    "resourceType": "Bundle",
    "totalResults": 7,
    "entry": [
        {
            "id": "Patient/some-id-here-1987",
            "content": {
                "resourceType": "Patient",
                "identifier": [
                    {
                        "system": "http://www.midea-tecg.com",
                        "value": "JOE_DOE_IDENTIFIER"
                    }
                ],
                "name": [
                    {
                        "family": [
                            "DOE"
                        ],
                        "given": [
                            "JOE"
                        ]
                    }
                ]
            }
        },
        {
            "id": "MedicationPrescription/ec3049fd-c6f8-44e9-8f44-e491ed486b5c",
            "content": {
                "resourceType": "MedicationPrescription",
                "status": "active",
                "dateWritten": "2008-09-22T13:58:00.000Z",
                "dosageInstruction": [
                    {
                        "route": {
                            "coding": [
                                {
                                    "system": "urn:oid:2.16.840.1.113883.3.26.1.1",
                                    "code": "C38288",
                                    "display": "Oral"
                                }
                            ],
                            "text": "Oral"
                        },
                        "doseQuantity": {
                            "value": 1
                        },
                        "timingPeriod": {
                            "start": "2008-09-22T13:58:00.000Z"
                        }
                    }
                ],
                "text": {
                    "status": "generated",
                    "div": "= 1 cap(s), PO, Once Daily, 10 cap(s)"
                },
                "contained": [
                    {
                        "id": "med",
                        "resourceType": "Medication",
                        "name": "lisinopril 10 mg oral tablet",
                        "code": {
                            "coding": [
                                {
                                    "system": "http://www.nlm.nih.gov/research/umls/rxnorm",
                                    "code": "314076",
                                    "display": "????"
                                }
                            ],
                            "text": "????"
                        }
                    }
                ],
                "medication": {
                    "reference": "#med",
                    "display": "lisinopril 10 mg oral tablet"
                },
                "patient": {
                    "reference": "Patient/some-id-here-1987",
                    "display": "DOE, JOE"
                }
            }
        },
        {
            "id": "MedicationPrescription/6a82b3ea-1f67-41ab-ae61-c964093681c1",
            "content": {
                "resourceType": "MedicationPrescription",
                "status": "active",
                "dateWritten": "2007-08-14T13:59:00.000Z",
                "dosageInstruction": [
                    {
                        "route": {
                            "coding": [
                                {
                                    "system": "urn:oid:2.16.840.1.113883.3.26.1.1",
                                    "code": "C38288",
                                    "display": "Oral"
                                }
                            ],
                            "text": "Oral"
                        },
                        "doseQuantity": {
                            "value": 2
                        },
                        "timingPeriod": {
                            "start": "2007-08-14T13:59:00.000Z"
                        }
                    }
                ],
                "text": {
                    "status": "generated",
                    "div": "2 puff(s), INH, QID, 14 g"
                },
                "contained": [
                    {
                        "id": "med",
                        "resourceType": "Medication",
                        "name": "Lipitor 20 mg oral tablet",
                        "code": {
                            "coding": [
                                {
                                    "system": "http://www.nlm.nih.gov/research/umls/rxnorm",
                                    "code": "617310",
                                    "display": "????"
                                }
                            ],
                            "text": "????"
                        }
                    }
                ],
                "medication": {
                    "reference": "#med",
                    "display": "Lipitor 20 mg oral tablet"
                },
                "patient": {
                    "reference": "Patient/some-id-here-1987",
                    "display": "DOE, JOE"
                }
            }
        },
        {
            "id": "MedicationPrescription/18cd538c-4f73-421e-8ac2-0718cba187de",
            "content": {
                "resourceType": "MedicationPrescription",
                "status": "active",
                "dateWritten": "2009-07-15T13:58:00.000Z",
                "dosageInstruction": [
                    {
                        "route": {
                            "coding": [
                                {
                                    "system": "urn:oid:2.16.840.1.113883.3.26.1.1",
                                    "code": "C38288",
                                    "display": "Oral"
                                }
                            ],
                            "text": "Oral"
                        },
                        "doseQuantity": {
                            "value": 75
                        },
                        "timingPeriod": {
                            "start": "2009-07-15T13:58:00.000Z"
                        }
                    }
                ],
                "text": {
                    "status": "generated",
                    "div": "75 mg = 1 tab(s), PO, Once Daily, 30 tab(s)"
                },
                "patient": {
                    "reference": "Patient/some-id-here-1987",
                    "display": "DOE, JOE"
                }
            }
        },
        {
            "id": "MedicationPrescription/9244dae2-dd8f-42e5-9338-e0fc4cff21d0",
            "content": {
                "resourceType": "MedicationPrescription",
                "status": "active",
                "dateWritten": "2009-07-15T13:58:00.000Z",
                "dosageInstruction": [
                    {
                        "route": {
                            "coding": [
                                {
                                    "system": "urn:oid:2.16.840.1.113883.3.26.1.1",
                                    "code": "C38288",
                                    "display": "Oral"
                                }
                            ],
                            "text": "Oral"
                        },
                        "doseQuantity": {
                            "value": 5
                        },
                        "timingPeriod": {
                            "start": "2009-07-15T13:58:00.000Z"
                        }
                    }
                ],
                "text": {
                    "status": "generated",
                    "div": "5 mg = 1 tab(s), PO, Once Daily, 30 tab(s)"
                },
                "patient": {
                    "reference": "Patient/some-id-here-1987",
                    "display": "DOE, JOE"
                }
            }
        },
        {
            "id": "MedicationPrescription/adf569b0-b507-439f-9fbb-41d89028b21c",
            "content": {
                "resourceType": "MedicationPrescription",
                "status": "active",
                "dateWritten": "2006-05-16T13:59:00.000Z",
                "dosageInstruction": [
                    {
                        "route": {
                            "coding": [
                                {
                                    "system": "urn:oid:2.16.840.1.113883.3.26.1.1",
                                    "code": "C38288",
                                    "display": "Oral"
                                }
                            ],
                            "text": "Oral"
                        },
                        "doseQuantity": {
                            "value": 0.1
                        },
                        "timingPeriod": {
                            "start": "2006-05-16T13:59:00.000Z"
                        }
                    }
                ],
                "text": {
                    "status": "generated",
                    "div": "0.1 mg = 1 tab(s), PO, BID, 180 tab(s)"
                },
                "contained": [
                    {
                        "id": "med",
                        "resourceType": "Medication",
                        "name": "Catapres 0.1 mg oral tablet"
                    }
                ],
                "medication": {
                    "reference": "#med",
                    "display": "Catapres 0.1 mg oral tablet"
                },
                "patient": {
                    "reference": "Patient/some-id-here-1987",
                    "display": "DOE, JOE"
                }
            }
        },
        {
            "id": "MedicationPrescription/5291e2e3-2208-403d-86ec-c33d417b95da",
            "content": {
                "resourceType": "MedicationPrescription",
                "status": "active",
                "dateWritten": "2009-07-15T13:57:00.000Z",
                "dosageInstruction": [
                    {
                        "route": {
                            "coding": [
                                {
                                    "system": "urn:oid:2.16.840.1.113883.3.26.1.1",
                                    "code": "C38288",
                                    "display": "Oral"
                                }
                            ],
                            "text": "Oral"
                        },
                        "doseQuantity": {
                            "value": 30
                        },
                        "timingPeriod": {
                            "start": "2009-07-15T13:57:00.000Z"
                        }
                    }
                ],
                "text": {
                    "status": "generated",
                    "div": "30 mg = 1 tab(s), PO, Once Daily, 30 tab(s)"
                },
                "contained": [
                    {
                        "id": "med",
                        "resourceType": "Medication",
                        "name": "Zestril 30 mg oral tablet"
                    }
                ],
                "medication": {
                    "reference": "#med",
                    "display": "Zestril 30 mg oral tablet"
                },
                "patient": {
                    "reference": "Patient/some-id-here-1987",
                    "display": "DOE, JOE"
                }
            }
        }
    ]
}