{
    "resourceType": "Bundle",
    "total": 14,
    "entry": [
        {
            "resource": {
                "id": "Patient/0",
                "resourceType": "Patient",
                "identifier": [
                    {
                        "system": "http://www.midea-tecg.com",
                        "value": "JOE_DOE_IDENTIFIER"
                    }
                ],
                "name": [
                    {
                        "family": [
                            "DOE"
                        ],
                        "given": [
                            "JOE"
                        ]
                    }
                ]
            }
        },
        {
            "resource": {
                "id": "AdverseReaction/1",
                "resourceType": "AdverseReaction",
                "symptom": [
                    {
                        "code": {
                            "coding": [
                                {
                                    "system": "http://snomed.info/sct",
                                    "code": "247472004",
                                    "display": "Hives"
                                }
                            ],
                            "text": "Hives"
                        }
                    }
                ],
                "didNotOccurFlag": false,
                "subject": {
                    "reference": "Patient/0",
                    "display": "DOE, JOE"
                }
            }
        },
        {
            "resource": {
                "id": "AllergyIntolerance/2",
                "resourceType": "AllergyIntolerance",
                "criticality": "medium",
                "sensitivityType": "allergy",
                "recordedDate": "2009-09-02",
                "status": "confirmed",
                "substance": {
                    "reference": "Substance/9",
                    "display": "ALLERGENIC EXTRACT, PENICILLIN"
                },
                "reaction": [
                    {
                        "reference": "AdverseReaction/1",
                        "display": "Hives"
                    }
                ],
                "subject": {
                    "reference": "Patient/0",
                    "display": "DOE, JOE"
                }
            }
        },
        {
            "resource": {
                "id": "AdverseReaction/3",
                "resourceType": "AdverseReaction",
                "symptom": [
                    {
                        "code": {
                            "coding": [
                                {
                                    "system": "http://snomed.info/sct",
                                    "code": "56018004",
                                    "display": "Wheezing"
                                }
                            ],
                            "text": "Wheezing"
                        }
                    }
                ],
                "didNotOccurFlag": false,
                "subject": {
                    "reference": "Patient/0",
                    "display": "DOE, JOE"
                }
            }
        },
        {
            "resource": {
                "id": "AllergyIntolerance/4",
                "resourceType": "AllergyIntolerance",
                "criticality": "medium",
                "sensitivityType": "allergy",
                "recordedDate": "2009-09-02",
                "status": "confirmed",
                "substance": {
                    "reference": "Substance/10",
                    "display": "ASPIRIN"
                },
                "reaction": [
                    {
                        "reference": "AdverseReaction/3",
                        "display": "Wheezing"
                    }
                ],
                "subject": {
                    "reference": "Patient/0",
                    "display": "DOE, JOE"
                }
            }
        },
        {
            "resource": {
                "id": "AdverseReaction/5",
                "resourceType": "AdverseReaction",
                "symptom": [
                    {
                        "code": {
                            "coding": [
                                {
                                    "system": "http://snomed.info/sct",
                                    "code": "73879007",
                                    "display": "Nausea"
                                }
                            ],
                            "text": "Nausea"
                        }
                    }
                ],
                "didNotOccurFlag": false,
                "subject": {
                    "reference": "Patient/0",
                    "display": "DOE, JOE"
                }
            }
        },
        {
            "resource": {
                "id": "AllergyIntolerance/6",
                "resourceType": "AllergyIntolerance",
                "criticality": "medium",
                "sensitivityType": "allergy",
                "recordedDate": "2009-09-02",
                "status": "confirmed",
                "substance": {
                    "reference": "Substance/11",
                    "display": "Codeine"
                },
                "reaction": [
                    {
                        "reference": "AdverseReaction/5",
                        "display": "Nausea"
                    }
                ],
                "subject": {
                    "reference": "Patient/0",
                    "display": "DOE, JOE"
                }
            }
        },
        {
            "resource": {
                "id": "MedicationPrescription/7",
                "resourceType": "MedicationPrescription",
                "status": "active",
                "dateWritten": "2011-03-01",
                "dosageInstruction": [
                    {
                        "route": {
                            "coding": [
                                {
                                    "system": "urn:oid:2.16.840.1.113883.3.26.1.1",
                                    "code": "C38216",
                                    "display": "RESPIRATORY (INHALATION)"
                                }
                            ],
                            "text": "RESPIRATORY (INHALATION)"
                        },
                        "doseQuantity": {
                            "value": 1
                        },
                        "timingSchedule": {
                            "event": [
                                {
                                    "start": "2011-03-01"
                                }
                            ],
                            "repeat": {
                                "frequency": 1,
                                "duration": 6,
                                "units": "h",
                                "end": "2012-03-01"
                            }
                        },
                        "asNeededCodeableConcept": {
                            "coding": [
                                {
                                    "system": "http://snomed.info/sct",
                                    "code": "56018004",
                                    "display": "Wheezing"
                                }
                            ],
                            "text": "Wheezing"
                        }
                    }
                ],
                "text": {
                    "status": "generated",
                    "div": "Proventil 0.09 MG/ACTUAT inhalant solution"
                },
                "medication": {
                    "reference": "Medication/12",
                    "display": "Albuterol 0.09 MG/ACTUAT inhalant solution"
                },
                "patient": {
                    "reference": "Patient/0",
                    "display": "DOE, JOE"
                }
            }
        },
        {
            "resource": {
                "id": "MedicationAdministration/8",
                "resourceType": "MedicationAdministration",
                "status": "completed",
                "practitioner": {
                    "reference": "Practitioner/unknown",
                    "display": "Unknown"
                },
                "whenGiven": {
                    "start": "2011-03-01",
                    "end": "2012-03-01"
                },
                "dosage": [
                    {
                        "route": {
                            "coding": [
                                {
                                    "system": "urn:oid:2.16.840.1.113883.3.26.1.1",
                                    "code": "C38216",
                                    "display": "RESPIRATORY (INHALATION)"
                                }
                            ],
                            "text": "RESPIRATORY (INHALATION)"
                        },
                        "quantity": {
                            "value": 1
                        },
                        "timingPeriod": {
                            "start": "2011-03-01",
                            "end": "2012-03-01"
                        },
                        "asNeededCodeableConcept": {
                            "coding": [
                                {
                                    "system": "http://snomed.info/sct",
                                    "code": "56018004",
                                    "display": "Wheezing"
                                }
                            ],
                            "text": "Wheezing"
                        }
                    }
                ],
                "prescription": {
                    "reference": "MedicationPrescription/7",
                    "display": "Proventil 0.09 MG/ACTUAT inhalant solution"
                },
                "medication": {
                    "reference": "Medication/13",
                    "display": "Albuterol 0.09 MG/ACTUAT inhalant solution"
                },
                "patient": {
                    "reference": "Patient/0",
                    "display": "DOE, JOE"
                }
            }
        },
        {
            "resource": {
                "id": "Substance/9",
                "resourceType": "Substance",
                "type": {
                    "coding": [
                        {
                            "system": "http://www.nlm.nih.gov/research/umls/rxnorm",
                            "code": "314422",
                            "display": "ALLERGENIC EXTRACT, PENICILLIN"
                        }
                    ],
                    "text": "ALLERGENIC EXTRACT, PENICILLIN"
                }
            }
        },
        {
            "resource": {
                "id": "Substance/10",
                "resourceType": "Substance",
                "type": {
                    "coding": [
                        {
                            "system": "http://www.nlm.nih.gov/research/umls/rxnorm",
                            "code": "1191",
                            "display": "ASPIRIN"
                        }
                    ],
                    "text": "ASPIRIN"
                }
            }
        },
        {
            "resource": {
                "id": "Substance/11",
                "resourceType": "Substance",
                "type": {
                    "coding": [
                        {
                            "system": "http://www.nlm.nih.gov/research/umls/rxnorm",
                            "code": "2670",
                            "display": "Codeine"
                        }
                    ],
                    "text": "Codeine"
                }
            }
        },
        {
            "resource": {
                "id": "Medication/12",
                "resourceType": "Medication",
                "name": "Albuterol 0.09 MG/ACTUAT inhalant solution",
                "code": {
                    "coding": [
                        {
                            "system": "http://www.nlm.nih.gov/research/umls/rxnorm",
                            "code": "329498",
                            "display": "Albuterol 0.09 MG/ACTUAT inhalant solution"
                        }
                    ],
                    "text": "Albuterol 0.09 MG/ACTUAT inhalant solution"
                }
            }
        },
        {
            "resource": {
                "id": "Medication/13",
                "resourceType": "Medication",
                "name": "Albuterol 0.09 MG/ACTUAT inhalant solution",
                "code": {
                    "coding": [
                        {
                            "system": "http://www.nlm.nih.gov/research/umls/rxnorm",
                            "code": "329498",
                            "display": "Albuterol 0.09 MG/ACTUAT inhalant solution"
                        }
                    ],
                    "text": "Albuterol 0.09 MG/ACTUAT inhalant solution"
                }
            }
        }
    ]
}