{
    "resourceType": "Bundle",
    "totalResults": 108,
    "entry": [
        {
            "id": "Patient/some-id-here-1987",
            "content": {
                "resourceType": "Patient",
                "identifier": [
                    {
                        "system": "http://www.midea-tecg.com",
                        "value": "JOE_DOE_IDENTIFIER"
                    }
                ],
                "name": [
                    {
                        "family": [
                            "DOE"
                        ],
                        "given": [
                            "JOE"
                        ]
                    }
                ]
            }
        },
        {
            "id": "AdverseReaction/5446d10c-8471-4ddc-90b6-60b458bb9a6e",
            "content": {
                "resourceType": "AdverseReaction",
                "symptom": [
                    {
                        "severity": "moderate",
                        "code": {
                            "coding": [
                                {
                                    "system": "http://snomed.info/sct",
                                    "code": "404640003",
                                    "display": "Dizziness"
                                }
                            ],
                            "text": "Dizziness"
                        }
                    }
                ],
                "didNotOccurFlag": false,
                "subject": {
                    "reference": "Patient/some-id-here-1987",
                    "display": "DOE, JOE"
                }
            }
        },
        {
            "id": "AllergyIntolerance/b461f35d-36d7-4111-b824-816750c2c6b1",
            "content": {
                "resourceType": "AllergyIntolerance",
                "sensitivityType": "allergy",
                "recordedDate": "1960-01-01",
                "status": "confirmed",
                "substance": {
                    "reference": "Substance/253d79ec-34ec-4674-86cc-21b49aefcf19",
                    "display": "Penicillin"
                },
                "reaction": [
                    {
                        "reference": "AdverseReaction/5446d10c-8471-4ddc-90b6-60b458bb9a6e",
                        "display": "Dizziness"
                    }
                ],
                "subject": {
                    "reference": "Patient/some-id-here-1987",
                    "display": "DOE, JOE"
                }
            }
        },
        {
            "id": "AdverseReaction/7e317d1d-2b6a-405c-9d83-10b06ffd0343",
            "content": {
                "resourceType": "AdverseReaction",
                "symptom": [
                    {
                        "severity": "severe",
                        "code": {
                            "coding": [
                                {
                                    "system": "http://snomed.info/sct",
                                    "code": "417516000",
                                    "display": "Anaphylaxis due to substance"
                                }
                            ],
                            "text": "Anaphylaxis due to substance"
                        }
                    }
                ],
                "didNotOccurFlag": false,
                "subject": {
                    "reference": "Patient/some-id-here-1987",
                    "display": "DOE, JOE"
                }
            }
        },
        {
            "id": "AllergyIntolerance/d1bc731d-a682-4bc2-b344-8946388b850e",
            "content": {
                "resourceType": "AllergyIntolerance",
                "sensitivityType": "allergy",
                "recordedDate": "1940-01-01",
                "status": "confirmed",
                "substance": {
                    "reference": "Substance/0c1137b0-15c5-4945-bbef-68a62bf6849c",
                    "display": "Bee Pollen"
                },
                "reaction": [
                    {
                        "reference": "AdverseReaction/7e317d1d-2b6a-405c-9d83-10b06ffd0343",
                        "display": "Anaphylaxis due to substance"
                    }
                ],
                "subject": {
                    "reference": "Patient/some-id-here-1987",
                    "display": "DOE, JOE"
                }
            }
        },
        {
            "id": "Condition/93d03199-7917-48d7-ba79-f47a16611c09",
            "content": {
                "resourceType": "Condition",
                "status": "confirmed",
                "onsetDate": "2005-05-01",
                "dateAsserted": "2005-05-01",
                "code": {
                    "coding": [
                        {
                            "system": "http://snomed.info/sct",
                            "code": "5962100",
                            "display": "Essential Hypertension"
                        }
                    ],
                    "text": "Essential Hypertension"
                },
                "subject": {
                    "reference": "Patient/some-id-here-1987",
                    "display": "DOE, JOE"
                }
            }
        },
        {
            "id": "Condition/72458a7a-abf8-453e-8f55-6fc993954e7f",
            "content": {
                "resourceType": "Condition",
                "status": "confirmed",
                "onsetDate": "2005-05-01",
                "dateAsserted": "2005-05-01",
                "code": {
                    "coding": [
                        {
                            "system": "http://snomed.info/sct",
                            "code": "5582204",
                            "display": "Hyperlipidemia"
                        }
                    ],
                    "text": "Hyperlipidemia"
                },
                "subject": {
                    "reference": "Patient/some-id-here-1987",
                    "display": "DOE, JOE"
                }
            }
        },
        {
            "id": "Condition/53cd7429-1e40-4f26-877c-e5ccf08ee63a",
            "content": {
                "resourceType": "Condition",
                "status": "confirmed",
                "onsetDate": "2008-11-01",
                "dateAsserted": "2008-11-01",
                "code": {
                    "coding": [
                        {
                            "system": "http://snomed.info/sct",
                            "code": "44054006",
                            "display": "Diabetes Mellitus Type II"
                        }
                    ],
                    "text": "Diabetes Mellitus Type II"
                },
                "subject": {
                    "reference": "Patient/some-id-here-1987",
                    "display": "DOE, JOE"
                }
            }
        },
        {
            "id": "Condition/c4925f16-44f9-4cc2-89b3-d283bf6d5346",
            "content": {
                "resourceType": "Condition",
                "status": "confirmed",
                "onsetDate": "2009-01-01",
                "dateAsserted": "2009-01-01",
                "code": {
                    "coding": [
                        {
                            "system": "http://snomed.info/sct",
                            "code": "433144002",
                            "display": "Chronic Kidney Disease Stage III"
                        }
                    ],
                    "text": "Chronic Kidney Disease Stage III"
                },
                "subject": {
                    "reference": "Patient/some-id-here-1987",
                    "display": "DOE, JOE"
                }
            }
        },
        {
            "id": "Condition/5f4f84b4-dba0-4d97-beb2-49908514feac",
            "content": {
                "resourceType": "Condition",
                "status": "confirmed",
                "onsetDate": "2006-11-01",
                "dateAsserted": "2006-11-01",
                "code": {
                    "coding": [
                        {
                            "system": "http://snomed.info/sct",
                            "code": "40930008",
                            "display": "Hypothyroidism"
                        }
                    ],
                    "text": "Hypothyroidism"
                },
                "subject": {
                    "reference": "Patient/some-id-here-1987",
                    "display": "DOE, JOE"
                }
            }
        },
        {
            "id": "Condition/cc87ad0b-32d6-48d5-b72b-12be1436cb1d",
            "content": {
                "resourceType": "Condition",
                "status": "confirmed",
                "onsetDate": "2009-07-01",
                "dateAsserted": "2009-07-01",
                "code": {
                    "coding": [
                        {
                            "system": "http://snomed.info/sct",
                            "code": "8957000",
                            "display": "Coronary Artery Disease"
                        }
                    ],
                    "text": "Coronary Artery Disease"
                },
                "subject": {
                    "reference": "Patient/some-id-here-1987",
                    "display": "DOE, JOE"
                }
            }
        },
        {
            "id": "Condition/7253552f-4760-481c-a5e4-27f6f1bb6481",
            "content": {
                "resourceType": "Condition",
                "status": "confirmed",
                "onsetDate": "2008-04-01",
                "dateAsserted": "2008-04-01",
                "code": {
                    "coding": [
                        {
                            "system": "http://snomed.info/sct",
                            "code": "266569009",
                            "display": "Benign prostatic hyperplasia"
                        }
                    ],
                    "text": "Benign prostatic hyperplasia"
                },
                "subject": {
                    "reference": "Patient/some-id-here-1987",
                    "display": "DOE, JOE"
                }
            }
        },
        {
            "id": "Condition/3c185141-b72b-4105-af33-29f3cab906db",
            "content": {
                "resourceType": "Condition",
                "status": "confirmed",
                "onsetDate": "2010-09-01",
                "dateAsserted": "2010-09-01",
                "code": {
                    "coding": [
                        {
                            "system": "http://snomed.info/sct",
                            "code": "49436004",
                            "display": "Atrial fibrillation"
                        }
                    ],
                    "text": "Atrial fibrillation"
                },
                "subject": {
                    "reference": "Patient/some-id-here-1987",
                    "display": "DOE, JOE"
                }
            }
        },
        {
            "id": "Condition/980554cf-caef-4a86-9ca1-616d8b536944",
            "content": {
                "resourceType": "Condition",
                "status": "confirmed",
                "onsetDate": "2006-06-01",
                "dateAsserted": "2006-06-01",
                "code": {
                    "coding": [
                        {
                            "system": "http://snomed.info/sct",
                            "code": "230572002",
                            "display": "Diabetic neuropathy"
                        }
                    ],
                    "text": "Diabetic neuropathy"
                },
                "subject": {
                    "reference": "Patient/some-id-here-1987",
                    "display": "DOE, JOE"
                }
            }
        },
        {
            "id": "Condition/01b8292b-2c5f-4ad4-b214-6a2b0c115c2c",
            "content": {
                "resourceType": "Condition",
                "status": "confirmed",
                "onsetDate": "1997-10-01",
                "dateAsserted": "1997-10-01",
                "code": {
                    "coding": [
                        {
                            "system": "http://snomed.info/sct",
                            "code": "238134004",
                            "display": "Generalized obesity"
                        }
                    ],
                    "text": "Generalized obesity"
                },
                "subject": {
                    "reference": "Patient/some-id-here-1987",
                    "display": "DOE, JOE"
                }
            }
        },
        {
            "id": "Condition/b6247af8-1980-4551-ab37-eacacbb4c8e9",
            "content": {
                "resourceType": "Condition",
                "status": "confirmed",
                "onsetDate": "2011-09-01",
                "dateAsserted": "2011-09-01",
                "code": {
                    "coding": [
                        {
                            "system": "http://snomed.info/sct",
                            "code": "193462001",
                            "display": "Insomnia"
                        }
                    ],
                    "text": "Insomnia"
                },
                "subject": {
                    "reference": "Patient/some-id-here-1987",
                    "display": "DOE, JOE"
                }
            }
        },
        {
            "id": "Observation/be0f0464-521f-4eb2-9ea5-ab3179df639a",
            "content": {
                "resourceType": "Observation",
                "name": {
                    "coding": [
                        {
                            "system": "http://loinc.org",
                            "code": "3016-3",
                            "display": "Thyrotropin [Units/volume] in Serum or Plasma"
                        }
                    ],
                    "text": "Thyrotropin [Units/volume] in Serum or Plasma"
                },
                "valueQuantity": {
                    "value": 6,
                    "units": "m[IU]/L",
                    "code": "m[IU]/L",
                    "system": "http://unitsofmeasure.org"
                },
                "issued": "2012-11-26",
                "status": "final",
                "reliability": "ok",
                "extension": [
                    {
                        "url": "http://amida.com/fhir/Profile/extensions#observation-type",
                        "valueCoding": {
                            "code": "11502-2",
                            "display": "Laboratory report",
                            "system": "http://loinc.org"
                        }
                    }
                ],
                "interpretation": {
                    "coding": [
                        {
                            "system": "http://hl7.org/fhir/v2/0078",
                            "code": "A",
                            "display": "abnormal"
                        }
                    ],
                    "text": "abnormal"
                },
                "referenceRange": [
                    {
                        "meaning": {
                            "coding": [
                                {
                                    "system": "http://hl7.org/fhir/referencerange-meaning",
                                    "code": "normal",
                                    "display": "Normal Range"
                                }
                            ],
                            "text": "Normal Range"
                        },
                        "text": "normal: 0.29–5.11 IU/ml"
                    }
                ],
                "subject": {
                    "reference": "Patient/some-id-here-1987",
                    "display": "DOE, JOE"
                }
            }
        },
        {
            "id": "Observation/e8d0cf91-b50c-4e17-860f-ddd6af0b657e",
            "content": {
                "resourceType": "Observation",
                "name": {
                    "coding": [
                        {
                            "system": "http://loinc.org",
                            "code": "11579-0",
                            "display": "Thyrotropin [Units/volume] in Serum or Plasma by Detection limit less than or equal to 0.05 mIU/L"
                        }
                    ],
                    "text": "Thyrotropin [Units/volume] in Serum or Plasma by Detection limit less than or equal to 0.05 mIU/L"
                },
                "status": "final",
                "reliability": "ok",
                "related": [
                    {
                        "type": "has-component",
                        "target": {
                            "reference": "Observation/be0f0464-521f-4eb2-9ea5-ab3179df639a"
                        }
                    }
                ],
                "extension": [
                    {
                        "url": "http://amida.com/fhir/Profile/extensions#observation-type",
                        "valueCoding": {
                            "code": "11502-2",
                            "display": "Laboratory report",
                            "system": "http://loinc.org"
                        }
                    }
                ],
                "subject": {
                    "reference": "Patient/some-id-here-1987",
                    "display": "DOE, JOE"
                }
            }
        },
        {
            "id": "Observation/c5540bf9-bca0-41bd-a2a5-2ff683d1d248",
            "content": {
                "resourceType": "Observation",
                "name": {
                    "coding": [
                        {
                            "system": "http://loinc.org",
                            "code": "4548-4",
                            "display": "Hemoglobin A1c/Hemoglobin.total in Blood"
                        }
                    ],
                    "text": "Hemoglobin A1c/Hemoglobin.total in Blood"
                },
                "valueQuantity": {
                    "value": 8,
                    "units": "%",
                    "code": "%",
                    "system": "http://unitsofmeasure.org"
                },
                "issued": "2012-11-26",
                "status": "final",
                "reliability": "ok",
                "extension": [
                    {
                        "url": "http://amida.com/fhir/Profile/extensions#observation-type",
                        "valueCoding": {
                            "code": "11502-2",
                            "display": "Laboratory report",
                            "system": "http://loinc.org"
                        }
                    }
                ],
                "interpretation": {
                    "coding": [
                        {
                            "system": "http://hl7.org/fhir/v2/0078",
                            "code": "A",
                            "display": "abnormal"
                        }
                    ],
                    "text": "abnormal"
                },
                "referenceRange": [
                    {
                        "meaning": {
                            "coding": [
                                {
                                    "system": "http://hl7.org/fhir/referencerange-meaning",
                                    "code": "normal",
                                    "display": "Normal Range"
                                }
                            ],
                            "text": "Normal Range"
                        },
                        "text": "normal: 4.0-5.6%"
                    }
                ],
                "subject": {
                    "reference": "Patient/some-id-here-1987",
                    "display": "DOE, JOE"
                }
            }
        },
        {
            "id": "Observation/f7c5c857-8bb4-4b7e-afec-76a685452ef3",
            "content": {
                "resourceType": "Observation",
                "name": {
                    "coding": [
                        {
                            "system": "http://loinc.org",
                            "code": "2160-0",
                            "display": "Creatinine [Mass/volume] in Serum or Plasma"
                        }
                    ],
                    "text": "Creatinine [Mass/volume] in Serum or Plasma"
                },
                "valueQuantity": {
                    "value": 1.5,
                    "units": "mg/dL",
                    "code": "mg/dL",
                    "system": "http://unitsofmeasure.org"
                },
                "issued": "2012-11-26",
                "status": "final",
                "reliability": "ok",
                "extension": [
                    {
                        "url": "http://amida.com/fhir/Profile/extensions#observation-type",
                        "valueCoding": {
                            "code": "11502-2",
                            "display": "Laboratory report",
                            "system": "http://loinc.org"
                        }
                    }
                ],
                "interpretation": {
                    "coding": [
                        {
                            "system": "http://hl7.org/fhir/v2/0078",
                            "code": "A",
                            "display": "abnormal"
                        }
                    ],
                    "text": "abnormal"
                },
                "referenceRange": [
                    {
                        "meaning": {
                            "coding": [
                                {
                                    "system": "http://hl7.org/fhir/referencerange-meaning",
                                    "code": "normal",
                                    "display": "Normal Range"
                                }
                            ],
                            "text": "Normal Range"
                        },
                        "text": "normal: below 1.5 mg/dL"
                    }
                ],
                "subject": {
                    "reference": "Patient/some-id-here-1987",
                    "display": "DOE, JOE"
                }
            }
        },
        {
            "id": "Observation/fef1bd02-078b-4556-ad76-d728adced30e",
            "content": {
                "resourceType": "Observation",
                "name": {
                    "coding": [
                        {
                            "system": "http://loinc.org",
                            "code": "6301-6",
                            "display": "INR in Platelet poor plasma by Coagulation assay"
                        }
                    ],
                    "text": "INR in Platelet poor plasma by Coagulation assay"
                },
                "valueQuantity": {
                    "value": 1.5
                },
                "issued": "2012-11-26",
                "status": "final",
                "reliability": "ok",
                "extension": [
                    {
                        "url": "http://amida.com/fhir/Profile/extensions#observation-type",
                        "valueCoding": {
                            "code": "11502-2",
                            "display": "Laboratory report",
                            "system": "http://loinc.org"
                        }
                    }
                ],
                "interpretation": {
                    "coding": [
                        {
                            "system": "http://hl7.org/fhir/v2/0078",
                            "code": "A",
                            "display": "abnormal"
                        }
                    ],
                    "text": "abnormal"
                },
                "referenceRange": [
                    {
                        "meaning": {
                            "coding": [
                                {
                                    "system": "http://hl7.org/fhir/referencerange-meaning",
                                    "code": "normal",
                                    "display": "Normal Range"
                                }
                            ],
                            "text": "Normal Range"
                        },
                        "text": "Normal reference range 1.0-1.5; Targeted INR 2.0-3.0"
                    }
                ],
                "subject": {
                    "reference": "Patient/some-id-here-1987",
                    "display": "DOE, JOE"
                }
            }
        },
        {
            "id": "Observation/1364f823-b20b-48ad-9b80-084a3a88db29",
            "content": {
                "resourceType": "Observation",
                "name": {
                    "coding": [
                        {
                            "system": "http://loinc.org",
                            "code": "18041-4",
                            "display": "Aortic valve Ejection [Time] by US.doppler"
                        }
                    ],
                    "text": "Aortic valve Ejection [Time] by US.doppler"
                },
                "valueQuantity": {
                    "value": 55,
                    "units": "%",
                    "code": "%",
                    "system": "http://unitsofmeasure.org"
                },
                "issued": "2012-11-26",
                "status": "final",
                "reliability": "ok",
                "extension": [
                    {
                        "url": "http://amida.com/fhir/Profile/extensions#observation-type",
                        "valueCoding": {
                            "code": "11502-2",
                            "display": "Laboratory report",
                            "system": "http://loinc.org"
                        }
                    }
                ],
                "interpretation": {
                    "coding": [
                        {
                            "system": "http://hl7.org/fhir/v2/0078",
                            "code": "N",
                            "display": "normal"
                        }
                    ],
                    "text": "normal"
                },
                "referenceRange": [
                    {
                        "meaning": {
                            "coding": [
                                {
                                    "system": "http://hl7.org/fhir/referencerange-meaning",
                                    "code": "normal",
                                    "display": "Normal Range"
                                }
                            ],
                            "text": "Normal Range"
                        },
                        "text": "Normal: 50-75%"
                    }
                ],
                "subject": {
                    "reference": "Patient/some-id-here-1987",
                    "display": "DOE, JOE"
                }
            }
        },
        {
            "id": "Observation/a29cb929-2d65-4556-9067-068d634d4cdb",
            "content": {
                "resourceType": "Observation",
                "name": {
                    "coding": [
                        {
                            "system": "http://loinc.org",
                            "code": "18089-3",
                            "display": "AV Orifice Area US"
                        }
                    ],
                    "text": "AV Orifice Area US"
                },
                "valueQuantity": {
                    "value": 1.5,
                    "units": "cm2",
                    "code": "cm2",
                    "system": "http://unitsofmeasure.org"
                },
                "issued": "2012-11-26",
                "status": "final",
                "reliability": "ok",
                "extension": [
                    {
                        "url": "http://amida.com/fhir/Profile/extensions#observation-type",
                        "valueCoding": {
                            "code": "11502-2",
                            "display": "Laboratory report",
                            "system": "http://loinc.org"
                        }
                    }
                ],
                "interpretation": {
                    "coding": [
                        {
                            "system": "http://hl7.org/fhir/v2/0078",
                            "code": "A",
                            "display": "abnormal"
                        }
                    ],
                    "text": "abnormal"
                },
                "referenceRange": [
                    {
                        "meaning": {
                            "coding": [
                                {
                                    "system": "http://hl7.org/fhir/referencerange-meaning",
                                    "code": "normal",
                                    "display": "Normal Range"
                                }
                            ],
                            "text": "Normal Range"
                        },
                        "text": "Normal (3.0-4.0 cm2), mild (1.5–2.0 cm2), moderate (1.0–1.5 cm2), severe (less than 1.0 cm2)"
                    }
                ],
                "subject": {
                    "reference": "Patient/some-id-here-1987",
                    "display": "DOE, JOE"
                }
            }
        },
        {
            "id": "Observation/4d844b44-195b-4e73-a3f7-97be64ebc282",
            "content": {
                "resourceType": "Observation",
                "name": {
                    "coding": [
                        {
                            "system": "http://loinc.org",
                            "code": "34552-0",
                            "display": "2D echocardiogram panel"
                        }
                    ],
                    "text": "2D echocardiogram panel"
                },
                "status": "final",
                "reliability": "ok",
                "related": [
                    {
                        "type": "has-component",
                        "target": {
                            "reference": "Observation/1364f823-b20b-48ad-9b80-084a3a88db29"
                        }
                    },
                    {
                        "type": "has-component",
                        "target": {
                            "reference": "Observation/a29cb929-2d65-4556-9067-068d634d4cdb"
                        }
                    }
                ],
                "extension": [
                    {
                        "url": "http://amida.com/fhir/Profile/extensions#observation-type",
                        "valueCoding": {
                            "code": "11502-2",
                            "display": "Laboratory report",
                            "system": "http://loinc.org"
                        }
                    }
                ],
                "subject": {
                    "reference": "Patient/some-id-here-1987",
                    "display": "DOE, JOE"
                }
            }
        },
        {
            "id": "Observation/6c8fc24d-e804-4904-8fd4-369b3a597886",
            "content": {
                "resourceType": "Observation",
                "name": {
                    "coding": [
                        {
                            "system": "http://loinc.org",
                            "code": "18844-1",
                            "display": "EKG impression Narrative"
                        }
                    ],
                    "text": "EKG impression Narrative"
                },
                "valueString": "EKG rate 60s, A fib, LBBB",
                "issued": "2012-11-26",
                "status": "final",
                "reliability": "ok",
                "extension": [
                    {
                        "url": "http://amida.com/fhir/Profile/extensions#observation-type",
                        "valueCoding": {
                            "code": "11502-2",
                            "display": "Laboratory report",
                            "system": "http://loinc.org"
                        }
                    }
                ],
                "subject": {
                    "reference": "Patient/some-id-here-1987",
                    "display": "DOE, JOE"
                }
            }
        },
        {
            "id": "Observation/1cb0e53e-4a01-48de-9726-08f2f8f021ee",
            "content": {
                "resourceType": "Observation",
                "name": {
                    "coding": [
                        {
                            "system": "http://loinc.org",
                            "code": "34534-8",
                            "display": "EKG 12 channel panel"
                        }
                    ],
                    "text": "EKG 12 channel panel"
                },
                "status": "final",
                "reliability": "ok",
                "related": [
                    {
                        "type": "has-component",
                        "target": {
                            "reference": "Observation/6c8fc24d-e804-4904-8fd4-369b3a597886"
                        }
                    }
                ],
                "extension": [
                    {
                        "url": "http://amida.com/fhir/Profile/extensions#observation-type",
                        "valueCoding": {
                            "code": "11502-2",
                            "display": "Laboratory report",
                            "system": "http://loinc.org"
                        }
                    }
                ],
                "subject": {
                    "reference": "Patient/some-id-here-1987",
                    "display": "DOE, JOE"
                }
            }
        },
        {
            "id": "MedicationPrescription/c4cd5182-5571-4841-bbb7-0dfaa18b571d",
            "content": {
                "resourceType": "MedicationPrescription",
                "status": "active",
                "dateWritten": "2012-11-01",
                "dosageInstruction": [
                    {
                        "route": {
                            "coding": [
                                {
                                    "system": "urn:oid:2.16.840.1.113883.3.26.1.1",
                                    "code": "C38288",
                                    "display": "oral"
                                }
                            ],
                            "text": "oral"
                        },
                        "doseQuantity": {
                            "value": 1
                        },
                        "timingSchedule": {
                            "event": [
                                {
                                    "start": "2012-11-01"
                                }
                            ],
                            "repeat": {
                                "frequency": 1,
                                "duration": 24,
                                "units": "h",
                                "end": "2012-12-31"
                            }
                        }
                    }
                ],
                "text": {
                    "status": "generated",
                    "div": "Lisinopril - 20mg by mouth once daily"
                },
                "medication": {
                    "reference": "Medication/47c29486-e285-4ef1-bbca-fd085e9882ca",
                    "display": "Lisinopril - 20mg by mouth once daily"
                },
                "patient": {
                    "reference": "Patient/some-id-here-1987",
                    "display": "DOE, JOE"
                }
            }
        },
        {
            "id": "MedicationAdministration/96405685-b8c2-4b64-8d9d-7fb79d8a5c4a",
            "content": {
                "resourceType": "MedicationAdministration",
                "status": "completed",
                "practitioner": {
                    "reference": "Practitioner/unknown",
                    "display": "Unknown"
                },
                "whenGiven": {
                    "start": "2012-11-01",
                    "end": "2012-12-31"
                },
                "dosage": [
                    {
                        "route": {
                            "coding": [
                                {
                                    "system": "urn:oid:2.16.840.1.113883.3.26.1.1",
                                    "code": "C38288",
                                    "display": "oral"
                                }
                            ],
                            "text": "oral"
                        },
                        "quantity": {
                            "value": 1
                        },
                        "timingPeriod": {
                            "start": "2012-11-01",
                            "end": "2012-12-31"
                        }
                    }
                ],
                "prescription": {
                    "reference": "MedicationPrescription/c4cd5182-5571-4841-bbb7-0dfaa18b571d",
                    "display": "Lisinopril - 20mg by mouth once daily"
                },
                "medication": {
                    "reference": "Medication/0e91c60b-b1b4-4a7a-8662-c858fe9239ec",
                    "display": "Lisinopril - 20mg by mouth once daily"
                },
                "patient": {
                    "reference": "Patient/some-id-here-1987",
                    "display": "DOE, JOE"
                }
            }
        },
        {
            "id": "MedicationPrescription/340ec29d-29a9-49b9-8842-32eab4b454c7",
            "content": {
                "resourceType": "MedicationPrescription",
                "status": "active",
                "dateWritten": "2012-11-01",
                "dosageInstruction": [
                    {
                        "route": {
                            "coding": [
                                {
                                    "system": "urn:oid:2.16.840.1.113883.3.26.1.1",
                                    "code": "C38288",
                                    "display": "oral"
                                }
                            ],
                            "text": "oral"
                        },
                        "doseQuantity": {
                            "value": 1
                        },
                        "timingSchedule": {
                            "event": [
                                {
                                    "start": "2012-11-01"
                                }
                            ],
                            "repeat": {
                                "frequency": 1,
                                "duration": 24,
                                "units": "h",
                                "end": "2012-12-31"
                            }
                        }
                    }
                ],
                "text": {
                    "status": "generated",
                    "div": "Lasix - 40mg by mouth once daily"
                },
                "medication": {
                    "reference": "Medication/c2215ba9-63a7-41ad-a6ea-e9e74d74d2f4",
                    "display": "Lasix - 40mg by mouth once daily"
                },
                "patient": {
                    "reference": "Patient/some-id-here-1987",
                    "display": "DOE, JOE"
                }
            }
        },
        {
            "id": "MedicationAdministration/a6664094-824b-4e71-b992-50e62d3c34b0",
            "content": {
                "resourceType": "MedicationAdministration",
                "status": "completed",
                "practitioner": {
                    "reference": "Practitioner/unknown",
                    "display": "Unknown"
                },
                "whenGiven": {
                    "start": "2012-11-01",
                    "end": "2012-12-31"
                },
                "dosage": [
                    {
                        "route": {
                            "coding": [
                                {
                                    "system": "urn:oid:2.16.840.1.113883.3.26.1.1",
                                    "code": "C38288",
                                    "display": "oral"
                                }
                            ],
                            "text": "oral"
                        },
                        "quantity": {
                            "value": 1
                        },
                        "timingPeriod": {
                            "start": "2012-11-01",
                            "end": "2012-12-31"
                        }
                    }
                ],
                "prescription": {
                    "reference": "MedicationPrescription/340ec29d-29a9-49b9-8842-32eab4b454c7",
                    "display": "Lasix - 40mg by mouth once daily"
                },
                "medication": {
                    "reference": "Medication/f2477af3-f7c7-44fa-9925-d71df493c029",
                    "display": "Lasix - 40mg by mouth once daily"
                },
                "patient": {
                    "reference": "Patient/some-id-here-1987",
                    "display": "DOE, JOE"
                }
            }
        },
        {
            "id": "MedicationPrescription/486e172a-dae5-49bd-bac8-df42a449a883",
            "content": {
                "resourceType": "MedicationPrescription",
                "status": "active",
                "dateWritten": "2012-11-01",
                "dosageInstruction": [
                    {
                        "route": {
                            "coding": [
                                {
                                    "system": "urn:oid:2.16.840.1.113883.3.26.1.1",
                                    "code": "C38288",
                                    "display": "oral"
                                }
                            ],
                            "text": "oral"
                        },
                        "doseQuantity": {
                            "value": 1
                        },
                        "timingSchedule": {
                            "event": [
                                {
                                    "start": "2012-11-01"
                                }
                            ],
                            "repeat": {
                                "frequency": 1,
                                "duration": 24,
                                "units": "h",
                                "end": "2012-12-31"
                            }
                        }
                    }
                ],
                "text": {
                    "status": "generated",
                    "div": "K-Dur - 10mEq/L by mouth once daily"
                },
                "medication": {
                    "reference": "Medication/0104b2d2-df47-46f0-b9ac-328f86b4bd89",
                    "display": "K-Dur - 10mEq/L by mouth once daily"
                },
                "patient": {
                    "reference": "Patient/some-id-here-1987",
                    "display": "DOE, JOE"
                }
            }
        },
        {
            "id": "MedicationAdministration/1192604e-5747-4c8a-9505-b41fc1e92ce0",
            "content": {
                "resourceType": "MedicationAdministration",
                "status": "completed",
                "practitioner": {
                    "reference": "Practitioner/unknown",
                    "display": "Unknown"
                },
                "whenGiven": {
                    "start": "2012-11-01",
                    "end": "2012-12-31"
                },
                "dosage": [
                    {
                        "route": {
                            "coding": [
                                {
                                    "system": "urn:oid:2.16.840.1.113883.3.26.1.1",
                                    "code": "C38288",
                                    "display": "oral"
                                }
                            ],
                            "text": "oral"
                        },
                        "quantity": {
                            "value": 1
                        },
                        "timingPeriod": {
                            "start": "2012-11-01",
                            "end": "2012-12-31"
                        }
                    }
                ],
                "prescription": {
                    "reference": "MedicationPrescription/486e172a-dae5-49bd-bac8-df42a449a883",
                    "display": "K-Dur - 10mEq/L by mouth once daily"
                },
                "medication": {
                    "reference": "Medication/30041991-859d-4f01-9eb6-25c329ab359e",
                    "display": "K-Dur - 10mEq/L by mouth once daily"
                },
                "patient": {
                    "reference": "Patient/some-id-here-1987",
                    "display": "DOE, JOE"
                }
            }
        },
        {
            "id": "MedicationPrescription/da8b35d2-8303-4f52-9faf-3b424cde1af3",
            "content": {
                "resourceType": "MedicationPrescription",
                "status": "active",
                "dateWritten": "2012-11-01",
                "dosageInstruction": [
                    {
                        "route": {
                            "coding": [
                                {
                                    "system": "urn:oid:2.16.840.1.113883.3.26.1.1",
                                    "code": "C38288",
                                    "display": "oral"
                                }
                            ],
                            "text": "oral"
                        },
                        "doseQuantity": {
                            "value": 1
                        },
                        "timingSchedule": {
                            "event": [
                                {
                                    "start": "2012-11-01"
                                }
                            ],
                            "repeat": {
                                "frequency": 1,
                                "duration": 24,
                                "units": "h",
                                "end": "2012-12-31"
                            }
                        }
                    }
                ],
                "text": {
                    "status": "generated",
                    "div": "Norvasc - 10mg by mouth once daily"
                },
                "medication": {
                    "reference": "Medication/8c2afd3d-13b8-4fa4-9a34-3c4666821bf9",
                    "display": "Norvasc - 10mg by mouth once daily"
                },
                "patient": {
                    "reference": "Patient/some-id-here-1987",
                    "display": "DOE, JOE"
                }
            }
        },
        {
            "id": "MedicationAdministration/2648ec90-2594-49fc-ba9f-4a20016dd7fc",
            "content": {
                "resourceType": "MedicationAdministration",
                "status": "completed",
                "practitioner": {
                    "reference": "Practitioner/unknown",
                    "display": "Unknown"
                },
                "whenGiven": {
                    "start": "2012-11-01",
                    "end": "2012-12-31"
                },
                "dosage": [
                    {
                        "route": {
                            "coding": [
                                {
                                    "system": "urn:oid:2.16.840.1.113883.3.26.1.1",
                                    "code": "C38288",
                                    "display": "oral"
                                }
                            ],
                            "text": "oral"
                        },
                        "quantity": {
                            "value": 1
                        },
                        "timingPeriod": {
                            "start": "2012-11-01",
                            "end": "2012-12-31"
                        }
                    }
                ],
                "prescription": {
                    "reference": "MedicationPrescription/da8b35d2-8303-4f52-9faf-3b424cde1af3",
                    "display": "Norvasc - 10mg by mouth once daily"
                },
                "medication": {
                    "reference": "Medication/54dd3893-03d1-4c3f-867a-1d29030d2f7b",
                    "display": "Norvasc - 10mg by mouth once daily"
                },
                "patient": {
                    "reference": "Patient/some-id-here-1987",
                    "display": "DOE, JOE"
                }
            }
        },
        {
            "id": "MedicationPrescription/9d5d25dd-97e8-42c1-be4a-4957d3dee0a6",
            "content": {
                "resourceType": "MedicationPrescription",
                "status": "active",
                "dateWritten": "2012-11-01",
                "dosageInstruction": [
                    {
                        "route": {
                            "coding": [
                                {
                                    "system": "urn:oid:2.16.840.1.113883.3.26.1.1",
                                    "code": "C38288",
                                    "display": "oral"
                                }
                            ],
                            "text": "oral"
                        },
                        "doseQuantity": {
                            "value": 1
                        },
                        "timingSchedule": {
                            "event": [
                                {
                                    "start": "2012-11-01"
                                }
                            ],
                            "repeat": {
                                "when": "HS",
                                "end": "2012-12-31",
                                "duration": 1,
                                "units": "s"
                            }
                        }
                    }
                ],
                "text": {
                    "status": "generated",
                    "div": "Zocor - 40mg by mouth once daily before bed"
                },
                "medication": {
                    "reference": "Medication/62679b75-d73a-4bf2-b554-a65d8813105a",
                    "display": "Zocor - 40mg by mouth once daily before bed"
                },
                "patient": {
                    "reference": "Patient/some-id-here-1987",
                    "display": "DOE, JOE"
                }
            }
        },
        {
            "id": "MedicationAdministration/31b4591d-83a4-4f5e-86ab-45e3699845d6",
            "content": {
                "resourceType": "MedicationAdministration",
                "status": "completed",
                "practitioner": {
                    "reference": "Practitioner/unknown",
                    "display": "Unknown"
                },
                "whenGiven": {
                    "start": "2012-11-01",
                    "end": "2012-12-31"
                },
                "dosage": [
                    {
                        "route": {
                            "coding": [
                                {
                                    "system": "urn:oid:2.16.840.1.113883.3.26.1.1",
                                    "code": "C38288",
                                    "display": "oral"
                                }
                            ],
                            "text": "oral"
                        },
                        "quantity": {
                            "value": 1
                        },
                        "timingPeriod": {
                            "start": "2012-11-01",
                            "end": "2012-12-31"
                        }
                    }
                ],
                "prescription": {
                    "reference": "MedicationPrescription/9d5d25dd-97e8-42c1-be4a-4957d3dee0a6",
                    "display": "Zocor - 40mg by mouth once daily before bed"
                },
                "medication": {
                    "reference": "Medication/c53a1dff-ecd9-4026-b342-21c34af42879",
                    "display": "Zocor - 40mg by mouth once daily before bed"
                },
                "patient": {
                    "reference": "Patient/some-id-here-1987",
                    "display": "DOE, JOE"
                }
            }
        },
        {
            "id": "MedicationPrescription/8f0eecf8-c0b4-42cd-b6ea-1661f688adca",
            "content": {
                "resourceType": "MedicationPrescription",
                "status": "active",
                "dateWritten": "2012-11-01",
                "dosageInstruction": [
                    {
                        "route": {
                            "coding": [
                                {
                                    "system": "urn:oid:2.16.840.1.113883.3.26.1.1",
                                    "code": "C38299",
                                    "display": "SUBCUTANEOUS"
                                }
                            ],
                            "text": "SUBCUTANEOUS"
                        },
                        "doseQuantity": {
                            "value": 0.36,
                            "units": "ml",
                            "code": "ml",
                            "system": "http://unitsofmeasure.org"
                        },
                        "timingSchedule": {
                            "event": [
                                {
                                    "start": "2012-11-01"
                                }
                            ],
                            "repeat": {
                                "when": "HS",
                                "end": "2012-12-31",
                                "duration": 1,
                                "units": "s"
                            }
                        }
                    }
                ],
                "text": {
                    "status": "generated",
                    "div": "Lantus - 36 units once daily before bed"
                },
                "medication": {
                    "reference": "Medication/385cf655-91d4-4f42-9857-8c95416557c9",
                    "display": "Lantus - 36 units once daily before bed"
                },
                "patient": {
                    "reference": "Patient/some-id-here-1987",
                    "display": "DOE, JOE"
                }
            }
        },
        {
            "id": "MedicationAdministration/04513d5a-7acb-4b58-bd82-7244337ee9e8",
            "content": {
                "resourceType": "MedicationAdministration",
                "status": "completed",
                "practitioner": {
                    "reference": "Practitioner/unknown",
                    "display": "Unknown"
                },
                "whenGiven": {
                    "start": "2012-11-01",
                    "end": "2012-12-31"
                },
                "dosage": [
                    {
                        "route": {
                            "coding": [
                                {
                                    "system": "urn:oid:2.16.840.1.113883.3.26.1.1",
                                    "code": "C38299",
                                    "display": "SUBCUTANEOUS"
                                }
                            ],
                            "text": "SUBCUTANEOUS"
                        },
                        "quantity": {
                            "value": 0.36,
                            "units": "ml",
                            "code": "ml",
                            "system": "http://unitsofmeasure.org"
                        },
                        "timingPeriod": {
                            "start": "2012-11-01",
                            "end": "2012-12-31"
                        }
                    }
                ],
                "prescription": {
                    "reference": "MedicationPrescription/8f0eecf8-c0b4-42cd-b6ea-1661f688adca",
                    "display": "Lantus - 36 units once daily before bed"
                },
                "medication": {
                    "reference": "Medication/f8e4fdc8-f086-48b9-a511-218d719a9a1e",
                    "display": "Lantus - 36 units once daily before bed"
                },
                "patient": {
                    "reference": "Patient/some-id-here-1987",
                    "display": "DOE, JOE"
                }
            }
        },
        {
            "id": "MedicationPrescription/2f5ace9c-b21a-402d-bb69-bf3451233085",
            "content": {
                "resourceType": "MedicationPrescription",
                "status": "active",
                "dateWritten": "2012-11-01",
                "dosageInstruction": [
                    {
                        "route": {
                            "coding": [
                                {
                                    "system": "urn:oid:2.16.840.1.113883.3.26.1.1",
                                    "code": "C38288",
                                    "display": "oral"
                                }
                            ],
                            "text": "oral"
                        },
                        "doseQuantity": {
                            "value": 1
                        },
                        "timingSchedule": {
                            "event": [
                                {
                                    "start": "2012-11-01"
                                }
                            ],
                            "repeat": {
                                "frequency": 1,
                                "duration": 24,
                                "units": "h",
                                "end": "2012-12-31"
                            }
                        }
                    }
                ],
                "text": {
                    "status": "generated",
                    "div": "gliburide - 2.5mg by mouth once daily"
                },
                "medication": {
                    "reference": "Medication/43161ad5-7fc4-4a07-b480-1b2eec926df7",
                    "display": "gliburide - 2.5mg by mouth once daily"
                },
                "patient": {
                    "reference": "Patient/some-id-here-1987",
                    "display": "DOE, JOE"
                }
            }
        },
        {
            "id": "MedicationAdministration/97c1328f-49ef-4712-a5a2-f6b1f40fe87a",
            "content": {
                "resourceType": "MedicationAdministration",
                "status": "completed",
                "practitioner": {
                    "reference": "Practitioner/unknown",
                    "display": "Unknown"
                },
                "whenGiven": {
                    "start": "2012-11-01",
                    "end": "2012-12-31"
                },
                "dosage": [
                    {
                        "route": {
                            "coding": [
                                {
                                    "system": "urn:oid:2.16.840.1.113883.3.26.1.1",
                                    "code": "C38288",
                                    "display": "oral"
                                }
                            ],
                            "text": "oral"
                        },
                        "quantity": {
                            "value": 1
                        },
                        "timingPeriod": {
                            "start": "2012-11-01",
                            "end": "2012-12-31"
                        }
                    }
                ],
                "prescription": {
                    "reference": "MedicationPrescription/2f5ace9c-b21a-402d-bb69-bf3451233085",
                    "display": "gliburide - 2.5mg by mouth once daily"
                },
                "medication": {
                    "reference": "Medication/8a0b67b9-7b2e-4207-8f6b-7de8ae9f1a40",
                    "display": "gliburide - 2.5mg by mouth once daily"
                },
                "patient": {
                    "reference": "Patient/some-id-here-1987",
                    "display": "DOE, JOE"
                }
            }
        },
        {
            "id": "MedicationPrescription/e246e517-c240-46b4-b433-1760019b033f",
            "content": {
                "resourceType": "MedicationPrescription",
                "status": "active",
                "dateWritten": "2012-11-01",
                "dosageInstruction": [
                    {
                        "route": {
                            "coding": [
                                {
                                    "system": "urn:oid:2.16.840.1.113883.3.26.1.1",
                                    "code": "C38288",
                                    "display": "oral"
                                }
                            ],
                            "text": "oral"
                        },
                        "doseQuantity": {
                            "value": 1
                        },
                        "timingSchedule": {
                            "event": [
                                {
                                    "start": "2012-11-01"
                                }
                            ],
                            "repeat": {
                                "frequency": 1,
                                "duration": 24,
                                "units": "h",
                                "end": "2012-12-31"
                            }
                        }
                    }
                ],
                "text": {
                    "status": "generated",
                    "div": "synthroid - 0.1mg by mouth once daily"
                },
                "medication": {
                    "reference": "Medication/a8b664bc-fb44-43d9-a27d-a114b50c5685",
                    "display": "synthroid - 0.1mg by mouth once daily"
                },
                "patient": {
                    "reference": "Patient/some-id-here-1987",
                    "display": "DOE, JOE"
                }
            }
        },
        {
            "id": "MedicationAdministration/de63175d-5d1a-426f-afe0-f4d7c08a6185",
            "content": {
                "resourceType": "MedicationAdministration",
                "status": "completed",
                "practitioner": {
                    "reference": "Practitioner/unknown",
                    "display": "Unknown"
                },
                "whenGiven": {
                    "start": "2012-11-01",
                    "end": "2012-12-31"
                },
                "dosage": [
                    {
                        "route": {
                            "coding": [
                                {
                                    "system": "urn:oid:2.16.840.1.113883.3.26.1.1",
                                    "code": "C38288",
                                    "display": "oral"
                                }
                            ],
                            "text": "oral"
                        },
                        "quantity": {
                            "value": 1
                        },
                        "timingPeriod": {
                            "start": "2012-11-01",
                            "end": "2012-12-31"
                        }
                    }
                ],
                "prescription": {
                    "reference": "MedicationPrescription/e246e517-c240-46b4-b433-1760019b033f",
                    "display": "synthroid - 0.1mg by mouth once daily"
                },
                "medication": {
                    "reference": "Medication/741582eb-f41b-408b-ae43-4a1fbda108a0",
                    "display": "synthroid - 0.1mg by mouth once daily"
                },
                "patient": {
                    "reference": "Patient/some-id-here-1987",
                    "display": "DOE, JOE"
                }
            }
        },
        {
            "id": "MedicationPrescription/a63058db-2d73-49dc-9bb1-20a9f17032ee",
            "content": {
                "resourceType": "MedicationPrescription",
                "status": "active",
                "dateWritten": "2012-11-01",
                "dosageInstruction": [
                    {
                        "route": {
                            "coding": [
                                {
                                    "system": "urn:oid:2.16.840.1.113883.3.26.1.1",
                                    "code": "C38288",
                                    "display": "oral"
                                }
                            ],
                            "text": "oral"
                        },
                        "doseQuantity": {
                            "value": 1
                        },
                        "timingSchedule": {
                            "event": [
                                {
                                    "start": "2012-11-01"
                                }
                            ],
                            "repeat": {
                                "frequency": 1,
                                "duration": 12,
                                "units": "h",
                                "end": "2012-12-31"
                            }
                        }
                    }
                ],
                "text": {
                    "status": "generated",
                    "div": "Aleve - 220mg by mouth twice daily"
                },
                "medication": {
                    "reference": "Medication/5028789f-f23f-4f9c-9915-8a50a2871939",
                    "display": "Aleve - 220mg by mouth twice daily"
                },
                "patient": {
                    "reference": "Patient/some-id-here-1987",
                    "display": "DOE, JOE"
                }
            }
        },
        {
            "id": "MedicationAdministration/a94ab64e-733c-4b78-a309-8625b4ab90f4",
            "content": {
                "resourceType": "MedicationAdministration",
                "status": "completed",
                "practitioner": {
                    "reference": "Practitioner/unknown",
                    "display": "Unknown"
                },
                "whenGiven": {
                    "start": "2012-11-01",
                    "end": "2012-12-31"
                },
                "dosage": [
                    {
                        "route": {
                            "coding": [
                                {
                                    "system": "urn:oid:2.16.840.1.113883.3.26.1.1",
                                    "code": "C38288",
                                    "display": "oral"
                                }
                            ],
                            "text": "oral"
                        },
                        "quantity": {
                            "value": 1
                        },
                        "timingPeriod": {
                            "start": "2012-11-01",
                            "end": "2012-12-31"
                        }
                    }
                ],
                "prescription": {
                    "reference": "MedicationPrescription/a63058db-2d73-49dc-9bb1-20a9f17032ee",
                    "display": "Aleve - 220mg by mouth twice daily"
                },
                "medication": {
                    "reference": "Medication/73f1b64e-ad44-4f8e-a983-b40874de2b54",
                    "display": "Aleve - 220mg by mouth twice daily"
                },
                "patient": {
                    "reference": "Patient/some-id-here-1987",
                    "display": "DOE, JOE"
                }
            }
        },
        {
            "id": "MedicationPrescription/45b7e370-5bbb-4214-8027-fcd54a81b29d",
            "content": {
                "resourceType": "MedicationPrescription",
                "status": "active",
                "dateWritten": "2012-11-01",
                "dosageInstruction": [
                    {
                        "route": {
                            "coding": [
                                {
                                    "system": "urn:oid:2.16.840.1.113883.3.26.1.1",
                                    "code": "C38288",
                                    "display": "oral"
                                }
                            ],
                            "text": "oral"
                        },
                        "doseQuantity": {
                            "value": 1
                        },
                        "timingSchedule": {
                            "event": [
                                {
                                    "start": "2012-11-01"
                                }
                            ],
                            "repeat": {
                                "frequency": 1,
                                "duration": 6,
                                "units": "h",
                                "end": "2012-12-31"
                            }
                        }
                    }
                ],
                "text": {
                    "status": "generated",
                    "div": "Ultram - 50mg by mouth four times daily as needed for joint pain"
                },
                "medication": {
                    "reference": "Medication/ab2b1ff3-51ea-4d6e-9b03-87e9b29c0364",
                    "display": "Ultram - 50mg by mouth four times daily as needed for joint pain"
                },
                "patient": {
                    "reference": "Patient/some-id-here-1987",
                    "display": "DOE, JOE"
                }
            }
        },
        {
            "id": "MedicationAdministration/f3356b4a-ed38-4efa-98cf-8c4acf43e130",
            "content": {
                "resourceType": "MedicationAdministration",
                "status": "completed",
                "practitioner": {
                    "reference": "Practitioner/unknown",
                    "display": "Unknown"
                },
                "whenGiven": {
                    "start": "2012-11-01",
                    "end": "2012-12-31"
                },
                "dosage": [
                    {
                        "route": {
                            "coding": [
                                {
                                    "system": "urn:oid:2.16.840.1.113883.3.26.1.1",
                                    "code": "C38288",
                                    "display": "oral"
                                }
                            ],
                            "text": "oral"
                        },
                        "quantity": {
                            "value": 1
                        },
                        "timingPeriod": {
                            "start": "2012-11-01",
                            "end": "2012-12-31"
                        }
                    }
                ],
                "prescription": {
                    "reference": "MedicationPrescription/45b7e370-5bbb-4214-8027-fcd54a81b29d",
                    "display": "Ultram - 50mg by mouth four times daily as needed for joint pain"
                },
                "medication": {
                    "reference": "Medication/2ea7e073-5c2e-4b43-8a62-786a8f9c4af5",
                    "display": "Ultram - 50mg by mouth four times daily as needed for joint pain"
                },
                "patient": {
                    "reference": "Patient/some-id-here-1987",
                    "display": "DOE, JOE"
                }
            }
        },
        {
            "id": "MedicationPrescription/9294bfe8-562b-485b-afde-e53ceef1defc",
            "content": {
                "resourceType": "MedicationPrescription",
                "status": "active",
                "dateWritten": "2012-11-01",
                "dosageInstruction": [
                    {
                        "route": {
                            "coding": [
                                {
                                    "system": "urn:oid:2.16.840.1.113883.3.26.1.1",
                                    "code": "C38288",
                                    "display": "oral"
                                }
                            ],
                            "text": "oral"
                        },
                        "doseQuantity": {
                            "value": 1
                        },
                        "timingSchedule": {
                            "event": [
                                {
                                    "start": "2012-11-01"
                                }
                            ],
                            "repeat": {
                                "frequency": 1,
                                "duration": 24,
                                "units": "h",
                                "end": "2012-12-31"
                            }
                        }
                    }
                ],
                "text": {
                    "status": "generated",
                    "div": "Aspirin - 81mg by mouth once daily"
                },
                "medication": {
                    "reference": "Medication/29e64922-3cf3-4299-bd3d-b16306efb05c",
                    "display": "Aspirin - 81mg by mouth once daily"
                },
                "patient": {
                    "reference": "Patient/some-id-here-1987",
                    "display": "DOE, JOE"
                }
            }
        },
        {
            "id": "MedicationAdministration/496b61b7-ecb4-4f26-b60d-a6ef4f1554c9",
            "content": {
                "resourceType": "MedicationAdministration",
                "status": "completed",
                "practitioner": {
                    "reference": "Practitioner/unknown",
                    "display": "Unknown"
                },
                "whenGiven": {
                    "start": "2012-11-01",
                    "end": "2012-12-31"
                },
                "dosage": [
                    {
                        "route": {
                            "coding": [
                                {
                                    "system": "urn:oid:2.16.840.1.113883.3.26.1.1",
                                    "code": "C38288",
                                    "display": "oral"
                                }
                            ],
                            "text": "oral"
                        },
                        "quantity": {
                            "value": 1
                        },
                        "timingPeriod": {
                            "start": "2012-11-01",
                            "end": "2012-12-31"
                        }
                    }
                ],
                "prescription": {
                    "reference": "MedicationPrescription/9294bfe8-562b-485b-afde-e53ceef1defc",
                    "display": "Aspirin - 81mg by mouth once daily"
                },
                "medication": {
                    "reference": "Medication/01cc5bf4-245f-4769-a4b0-189dd544d895",
                    "display": "Aspirin - 81mg by mouth once daily"
                },
                "patient": {
                    "reference": "Patient/some-id-here-1987",
                    "display": "DOE, JOE"
                }
            }
        },
        {
            "id": "MedicationPrescription/1e7106ff-4246-41a2-878c-64f241958872",
            "content": {
                "resourceType": "MedicationPrescription",
                "status": "active",
                "dateWritten": "2012-11-01",
                "dosageInstruction": [
                    {
                        "route": {
                            "coding": [
                                {
                                    "system": "urn:oid:2.16.840.1.113883.3.26.1.1",
                                    "code": "C38288",
                                    "display": "oral"
                                }
                            ],
                            "text": "oral"
                        },
                        "doseQuantity": {
                            "value": 1
                        },
                        "timingSchedule": {
                            "event": [
                                {
                                    "start": "2012-11-01"
                                }
                            ],
                            "repeat": {
                                "frequency": 1,
                                "duration": 12,
                                "units": "h",
                                "end": "2012-12-31"
                            }
                        }
                    }
                ],
                "text": {
                    "status": "generated",
                    "div": "Lopressor - 50mg by mouth twice daily"
                },
                "medication": {
                    "reference": "Medication/cda6f436-e9e0-4ea8-b4e5-60ce3e53d98e",
                    "display": "Lopressor - 50mg by mouth twice daily"
                },
                "patient": {
                    "reference": "Patient/some-id-here-1987",
                    "display": "DOE, JOE"
                }
            }
        },
        {
            "id": "MedicationAdministration/21c4043c-9b40-4085-a731-571e4ab0d095",
            "content": {
                "resourceType": "MedicationAdministration",
                "status": "completed",
                "practitioner": {
                    "reference": "Practitioner/unknown",
                    "display": "Unknown"
                },
                "whenGiven": {
                    "start": "2012-11-01",
                    "end": "2012-12-31"
                },
                "dosage": [
                    {
                        "route": {
                            "coding": [
                                {
                                    "system": "urn:oid:2.16.840.1.113883.3.26.1.1",
                                    "code": "C38288",
                                    "display": "oral"
                                }
                            ],
                            "text": "oral"
                        },
                        "quantity": {
                            "value": 1
                        },
                        "timingPeriod": {
                            "start": "2012-11-01",
                            "end": "2012-12-31"
                        }
                    }
                ],
                "prescription": {
                    "reference": "MedicationPrescription/1e7106ff-4246-41a2-878c-64f241958872",
                    "display": "Lopressor - 50mg by mouth twice daily"
                },
                "medication": {
                    "reference": "Medication/dd0543eb-b4ca-4bf1-b193-a965b1bb1920",
                    "display": "Lopressor - 50mg by mouth twice daily"
                },
                "patient": {
                    "reference": "Patient/some-id-here-1987",
                    "display": "DOE, JOE"
                }
            }
        },
        {
            "id": "MedicationPrescription/c06a9be8-21a9-4f24-802a-d8f442cc8457",
            "content": {
                "resourceType": "MedicationPrescription",
                "status": "active",
                "dateWritten": "2012-11-01",
                "dosageInstruction": [
                    {
                        "route": {
                            "coding": [
                                {
                                    "system": "urn:oid:2.16.840.1.113883.3.26.1.1",
                                    "code": "C38288",
                                    "display": "oral"
                                }
                            ],
                            "text": "oral"
                        },
                        "doseQuantity": {
                            "value": 1
                        },
                        "timingSchedule": {
                            "event": [
                                {
                                    "start": "2012-11-01"
                                }
                            ],
                            "repeat": {
                                "frequency": 1,
                                "duration": 24,
                                "units": "h",
                                "end": "2012-12-31"
                            }
                        }
                    }
                ],
                "text": {
                    "status": "generated",
                    "div": "Flomax - 0.4mg by mouth once daily"
                },
                "medication": {
                    "reference": "Medication/df023894-5887-4cf2-b7c4-7c2633a3fe18",
                    "display": "Flomax - 0.4mg by mouth once daily"
                },
                "patient": {
                    "reference": "Patient/some-id-here-1987",
                    "display": "DOE, JOE"
                }
            }
        },
        {
            "id": "MedicationAdministration/286ee59f-887c-418e-8676-ed479b2aa566",
            "content": {
                "resourceType": "MedicationAdministration",
                "status": "completed",
                "practitioner": {
                    "reference": "Practitioner/unknown",
                    "display": "Unknown"
                },
                "whenGiven": {
                    "start": "2012-11-01",
                    "end": "2012-12-31"
                },
                "dosage": [
                    {
                        "route": {
                            "coding": [
                                {
                                    "system": "urn:oid:2.16.840.1.113883.3.26.1.1",
                                    "code": "C38288",
                                    "display": "oral"
                                }
                            ],
                            "text": "oral"
                        },
                        "quantity": {
                            "value": 1
                        },
                        "timingPeriod": {
                            "start": "2012-11-01",
                            "end": "2012-12-31"
                        }
                    }
                ],
                "prescription": {
                    "reference": "MedicationPrescription/c06a9be8-21a9-4f24-802a-d8f442cc8457",
                    "display": "Flomax - 0.4mg by mouth once daily"
                },
                "medication": {
                    "reference": "Medication/c8ea71bf-fd83-4232-9bd3-1acaa2f44577",
                    "display": "Flomax - 0.4mg by mouth once daily"
                },
                "patient": {
                    "reference": "Patient/some-id-here-1987",
                    "display": "DOE, JOE"
                }
            }
        },
        {
            "id": "MedicationPrescription/7413932e-c4a9-4a72-9d2c-49f6e8a130d3",
            "content": {
                "resourceType": "MedicationPrescription",
                "status": "active",
                "dateWritten": "2012-11-01",
                "dosageInstruction": [
                    {
                        "route": {
                            "coding": [
                                {
                                    "system": "urn:oid:2.16.840.1.113883.3.26.1.1",
                                    "code": "C38288",
                                    "display": "oral"
                                }
                            ],
                            "text": "oral"
                        },
                        "doseQuantity": {
                            "value": 1
                        },
                        "timingSchedule": {
                            "event": [
                                {
                                    "start": "2012-11-01"
                                }
                            ],
                            "repeat": {
                                "frequency": 1,
                                "duration": 24,
                                "units": "h",
                                "end": "2012-12-31"
                            }
                        }
                    }
                ],
                "text": {
                    "status": "generated",
                    "div": "Proscar - 5mg by mouth once daily"
                },
                "medication": {
                    "reference": "Medication/39c18564-2cd2-4328-bcf4-836aaad718ed",
                    "display": "Proscar - 5mg by mouth once daily"
                },
                "patient": {
                    "reference": "Patient/some-id-here-1987",
                    "display": "DOE, JOE"
                }
            }
        },
        {
            "id": "MedicationAdministration/d8e69cb9-a7d4-436e-82a2-5056477fae7b",
            "content": {
                "resourceType": "MedicationAdministration",
                "status": "completed",
                "practitioner": {
                    "reference": "Practitioner/unknown",
                    "display": "Unknown"
                },
                "whenGiven": {
                    "start": "2012-11-01",
                    "end": "2012-12-31"
                },
                "dosage": [
                    {
                        "route": {
                            "coding": [
                                {
                                    "system": "urn:oid:2.16.840.1.113883.3.26.1.1",
                                    "code": "C38288",
                                    "display": "oral"
                                }
                            ],
                            "text": "oral"
                        },
                        "quantity": {
                            "value": 1
                        },
                        "timingPeriod": {
                            "start": "2012-11-01",
                            "end": "2012-12-31"
                        }
                    }
                ],
                "prescription": {
                    "reference": "MedicationPrescription/7413932e-c4a9-4a72-9d2c-49f6e8a130d3",
                    "display": "Proscar - 5mg by mouth once daily"
                },
                "medication": {
                    "reference": "Medication/c85e0a4d-96f5-4d34-bd4f-d7b93405d8d5",
                    "display": "Proscar - 5mg by mouth once daily"
                },
                "patient": {
                    "reference": "Patient/some-id-here-1987",
                    "display": "DOE, JOE"
                }
            }
        },
        {
            "id": "MedicationPrescription/a76b829e-8d20-4d15-8fe6-3cc3381bfebf",
            "content": {
                "resourceType": "MedicationPrescription",
                "status": "active",
                "dateWritten": "2012-11-01",
                "dosageInstruction": [
                    {
                        "route": {
                            "coding": [
                                {
                                    "system": "urn:oid:2.16.840.1.113883.3.26.1.1",
                                    "code": "C38288",
                                    "display": "oral"
                                }
                            ],
                            "text": "oral"
                        },
                        "doseQuantity": {
                            "value": 1
                        },
                        "timingSchedule": {
                            "event": [
                                {
                                    "start": "2012-11-01"
                                }
                            ],
                            "repeat": {
                                "frequency": 1,
                                "duration": 8,
                                "units": "h",
                                "end": "2012-12-31"
                            }
                        }
                    }
                ],
                "text": {
                    "status": "generated",
                    "div": "Neurontin - 300mg by mouth three times daily"
                },
                "medication": {
                    "reference": "Medication/592bc0e5-8abe-4528-8227-0532738159e5",
                    "display": "Neurontin - 300mg by mouth three times daily"
                },
                "patient": {
                    "reference": "Patient/some-id-here-1987",
                    "display": "DOE, JOE"
                }
            }
        },
        {
            "id": "MedicationAdministration/2cbb10b3-994b-4192-96fb-0d6d1f29b86a",
            "content": {
                "resourceType": "MedicationAdministration",
                "status": "completed",
                "practitioner": {
                    "reference": "Practitioner/unknown",
                    "display": "Unknown"
                },
                "whenGiven": {
                    "start": "2012-11-01",
                    "end": "2012-12-31"
                },
                "dosage": [
                    {
                        "route": {
                            "coding": [
                                {
                                    "system": "urn:oid:2.16.840.1.113883.3.26.1.1",
                                    "code": "C38288",
                                    "display": "oral"
                                }
                            ],
                            "text": "oral"
                        },
                        "quantity": {
                            "value": 1
                        },
                        "timingPeriod": {
                            "start": "2012-11-01",
                            "end": "2012-12-31"
                        }
                    }
                ],
                "prescription": {
                    "reference": "MedicationPrescription/a76b829e-8d20-4d15-8fe6-3cc3381bfebf",
                    "display": "Neurontin - 300mg by mouth three times daily"
                },
                "medication": {
                    "reference": "Medication/9f0a83f5-23b0-4ea6-9874-02038ebf773f",
                    "display": "Neurontin - 300mg by mouth three times daily"
                },
                "patient": {
                    "reference": "Patient/some-id-here-1987",
                    "display": "DOE, JOE"
                }
            }
        },
        {
            "id": "MedicationPrescription/615d8dd9-42f0-4c8e-bf5f-24ea90901cc2",
            "content": {
                "resourceType": "MedicationPrescription",
                "status": "active",
                "dateWritten": "2012-11-01",
                "dosageInstruction": [
                    {
                        "route": {
                            "coding": [
                                {
                                    "system": "urn:oid:2.16.840.1.113883.3.26.1.1",
                                    "code": "C38288",
                                    "display": "oral"
                                }
                            ],
                            "text": "oral"
                        },
                        "doseQuantity": {
                            "value": 1
                        },
                        "timingSchedule": {
                            "event": [
                                {
                                    "start": "2012-11-01"
                                }
                            ],
                            "repeat": {
                                "frequency": 1,
                                "duration": 8,
                                "units": "h",
                                "end": "2012-12-31"
                            }
                        }
                    }
                ],
                "text": {
                    "status": "generated",
                    "div": "Ativan - 1mg by mouth three times daily as needed for irritability"
                },
                "medication": {
                    "reference": "Medication/c58ea249-c1e6-4eb7-98e1-6d834ec12408",
                    "display": "Ativan - 1mg by mouth three times daily as needed for irritability"
                },
                "patient": {
                    "reference": "Patient/some-id-here-1987",
                    "display": "DOE, JOE"
                }
            }
        },
        {
            "id": "MedicationAdministration/e721de73-837a-4d0a-a96f-e1b021b5a1cb",
            "content": {
                "resourceType": "MedicationAdministration",
                "status": "completed",
                "practitioner": {
                    "reference": "Practitioner/unknown",
                    "display": "Unknown"
                },
                "whenGiven": {
                    "start": "2012-11-01",
                    "end": "2012-12-31"
                },
                "dosage": [
                    {
                        "route": {
                            "coding": [
                                {
                                    "system": "urn:oid:2.16.840.1.113883.3.26.1.1",
                                    "code": "C38288",
                                    "display": "oral"
                                }
                            ],
                            "text": "oral"
                        },
                        "quantity": {
                            "value": 1
                        },
                        "timingPeriod": {
                            "start": "2012-11-01",
                            "end": "2012-12-31"
                        }
                    }
                ],
                "prescription": {
                    "reference": "MedicationPrescription/615d8dd9-42f0-4c8e-bf5f-24ea90901cc2",
                    "display": "Ativan - 1mg by mouth three times daily as needed for irritability"
                },
                "medication": {
                    "reference": "Medication/40a889a7-17a7-4b49-a3cf-e1979c837140",
                    "display": "Ativan - 1mg by mouth three times daily as needed for irritability"
                },
                "patient": {
                    "reference": "Patient/some-id-here-1987",
                    "display": "DOE, JOE"
                }
            }
        },
        {
            "id": "MedicationPrescription/08d23882-2c8b-436b-878b-a0bdacb07d6c",
            "content": {
                "resourceType": "MedicationPrescription",
                "status": "active",
                "dateWritten": "2012-11-01",
                "dosageInstruction": [
                    {
                        "route": {
                            "coding": [
                                {
                                    "system": "urn:oid:2.16.840.1.113883.3.26.1.1",
                                    "code": "C38288",
                                    "display": "oral"
                                }
                            ],
                            "text": "oral"
                        },
                        "doseQuantity": {
                            "value": 1
                        },
                        "timingSchedule": {
                            "event": [
                                {
                                    "start": "2012-11-01"
                                }
                            ],
                            "repeat": {
                                "frequency": 1,
                                "duration": 12,
                                "units": "h",
                                "end": "2012-12-31"
                            }
                        }
                    }
                ],
                "text": {
                    "status": "generated",
                    "div": "miodarone - 200mg by mouth two times daily"
                },
                "medication": {
                    "reference": "Medication/ba4bdfe7-a2dd-4df4-aaf2-26bbf183a14f",
                    "display": "miodarone - 200mg by mouth two times daily"
                },
                "patient": {
                    "reference": "Patient/some-id-here-1987",
                    "display": "DOE, JOE"
                }
            }
        },
        {
            "id": "MedicationAdministration/76618660-1313-423f-85b9-89b2def8f100",
            "content": {
                "resourceType": "MedicationAdministration",
                "status": "completed",
                "practitioner": {
                    "reference": "Practitioner/unknown",
                    "display": "Unknown"
                },
                "whenGiven": {
                    "start": "2012-11-01",
                    "end": "2012-12-31"
                },
                "dosage": [
                    {
                        "route": {
                            "coding": [
                                {
                                    "system": "urn:oid:2.16.840.1.113883.3.26.1.1",
                                    "code": "C38288",
                                    "display": "oral"
                                }
                            ],
                            "text": "oral"
                        },
                        "quantity": {
                            "value": 1
                        },
                        "timingPeriod": {
                            "start": "2012-11-01",
                            "end": "2012-12-31"
                        }
                    }
                ],
                "prescription": {
                    "reference": "MedicationPrescription/08d23882-2c8b-436b-878b-a0bdacb07d6c",
                    "display": "miodarone - 200mg by mouth two times daily"
                },
                "medication": {
                    "reference": "Medication/3f2ebe14-44b2-4015-89e4-b0ff66b221c2",
                    "display": "miodarone - 200mg by mouth two times daily"
                },
                "patient": {
                    "reference": "Patient/some-id-here-1987",
                    "display": "DOE, JOE"
                }
            }
        },
        {
            "id": "MedicationPrescription/a5036910-d9b3-4e41-845e-520f2307a3a4",
            "content": {
                "resourceType": "MedicationPrescription",
                "status": "active",
                "dateWritten": "2012-11-01",
                "dosageInstruction": [
                    {
                        "route": {
                            "coding": [
                                {
                                    "system": "urn:oid:2.16.840.1.113883.3.26.1.1",
                                    "code": "C38288",
                                    "display": "oral"
                                }
                            ],
                            "text": "oral"
                        },
                        "doseQuantity": {
                            "value": 1
                        },
                        "timingSchedule": {
                            "event": [
                                {
                                    "start": "2012-11-01"
                                }
                            ],
                            "repeat": {
                                "frequency": 1,
                                "duration": 2,
                                "units": "d",
                                "end": "2012-12-31"
                            }
                        }
                    }
                ],
                "text": {
                    "status": "generated",
                    "div": "Coumadin - 5mg by mouth every other day starting 11/1/2012"
                },
                "medication": {
                    "reference": "Medication/82a84507-f4a1-4344-bc70-73361248f8f8",
                    "display": "Coumadin - 5mg by mouth every other day starting 11/1/2012"
                },
                "patient": {
                    "reference": "Patient/some-id-here-1987",
                    "display": "DOE, JOE"
                }
            }
        },
        {
            "id": "MedicationAdministration/c74c7298-f424-4b9b-a313-4945a840daff",
            "content": {
                "resourceType": "MedicationAdministration",
                "status": "completed",
                "practitioner": {
                    "reference": "Practitioner/unknown",
                    "display": "Unknown"
                },
                "whenGiven": {
                    "start": "2012-11-01",
                    "end": "2012-12-31"
                },
                "dosage": [
                    {
                        "route": {
                            "coding": [
                                {
                                    "system": "urn:oid:2.16.840.1.113883.3.26.1.1",
                                    "code": "C38288",
                                    "display": "oral"
                                }
                            ],
                            "text": "oral"
                        },
                        "quantity": {
                            "value": 1
                        },
                        "timingPeriod": {
                            "start": "2012-11-01",
                            "end": "2012-12-31"
                        }
                    }
                ],
                "prescription": {
                    "reference": "MedicationPrescription/a5036910-d9b3-4e41-845e-520f2307a3a4",
                    "display": "Coumadin - 5mg by mouth every other day starting 11/1/2012"
                },
                "medication": {
                    "reference": "Medication/b2ae296d-a92f-42a3-b7a2-098a3262d9a3",
                    "display": "Coumadin - 5mg by mouth every other day starting 11/1/2012"
                },
                "patient": {
                    "reference": "Patient/some-id-here-1987",
                    "display": "DOE, JOE"
                }
            }
        },
        {
            "id": "MedicationPrescription/357bfa52-19b6-4373-b58d-d8f450540026",
            "content": {
                "resourceType": "MedicationPrescription",
                "status": "active",
                "dateWritten": "2012-11-01",
                "dosageInstruction": [
                    {
                        "route": {
                            "coding": [
                                {
                                    "system": "urn:oid:2.16.840.1.113883.3.26.1.1",
                                    "code": "C38288",
                                    "display": "oral"
                                }
                            ],
                            "text": "oral"
                        },
                        "doseQuantity": {
                            "value": 1
                        },
                        "timingSchedule": {
                            "event": [
                                {
                                    "start": "2012-11-01"
                                }
                            ],
                            "repeat": {
                                "frequency": 1,
                                "duration": 2,
                                "units": "d",
                                "end": "2012-12-31"
                            }
                        }
                    }
                ],
                "text": {
                    "status": "generated",
                    "div": "Coumadin - 2.5mg by mouth every other day starting 11/2/2012"
                },
                "medication": {
                    "reference": "Medication/3bfaa37f-9749-457f-a2a3-19a84f25cbea",
                    "display": "Coumadin - 2.5mg by mouth every other day starting 11/2/2012"
                },
                "patient": {
                    "reference": "Patient/some-id-here-1987",
                    "display": "DOE, JOE"
                }
            }
        },
        {
            "id": "MedicationAdministration/8e90179a-4129-4675-b40d-aab9ce89db6d",
            "content": {
                "resourceType": "MedicationAdministration",
                "status": "completed",
                "practitioner": {
                    "reference": "Practitioner/unknown",
                    "display": "Unknown"
                },
                "whenGiven": {
                    "start": "2012-11-01",
                    "end": "2012-12-31"
                },
                "dosage": [
                    {
                        "route": {
                            "coding": [
                                {
                                    "system": "urn:oid:2.16.840.1.113883.3.26.1.1",
                                    "code": "C38288",
                                    "display": "oral"
                                }
                            ],
                            "text": "oral"
                        },
                        "quantity": {
                            "value": 1
                        },
                        "timingPeriod": {
                            "start": "2012-11-01",
                            "end": "2012-12-31"
                        }
                    }
                ],
                "prescription": {
                    "reference": "MedicationPrescription/357bfa52-19b6-4373-b58d-d8f450540026",
                    "display": "Coumadin - 2.5mg by mouth every other day starting 11/2/2012"
                },
                "medication": {
                    "reference": "Medication/d9d9a6dc-4187-4d02-b260-29bf0e7b4b4e",
                    "display": "Coumadin - 2.5mg by mouth every other day starting 11/2/2012"
                },
                "patient": {
                    "reference": "Patient/some-id-here-1987",
                    "display": "DOE, JOE"
                }
            }
        },
        {
            "id": "MedicationPrescription/4dac0115-337d-41d9-a8e2-0ad0fcdfdaf2",
            "content": {
                "resourceType": "MedicationPrescription",
                "status": "active",
                "dateWritten": "2012-11-01",
                "dosageInstruction": [
                    {
                        "route": {
                            "coding": [
                                {
                                    "system": "urn:oid:2.16.840.1.113883.3.26.1.1",
                                    "code": "C38288",
                                    "display": "oral"
                                }
                            ],
                            "text": "oral"
                        },
                        "doseQuantity": {
                            "value": 1
                        },
                        "timingSchedule": {
                            "event": [
                                {
                                    "start": "2012-11-01"
                                }
                            ],
                            "repeat": {
                                "when": "HS",
                                "end": "2012-12-31",
                                "duration": 1,
                                "units": "s"
                            }
                        }
                    }
                ],
                "text": {
                    "status": "generated",
                    "div": "Ambien - 5mg by mouth once daily before bed"
                },
                "medication": {
                    "reference": "Medication/25cf364f-cc93-4a20-b767-b716ee985d8f",
                    "display": "Ambien - 5mg by mouth once daily before bed"
                },
                "patient": {
                    "reference": "Patient/some-id-here-1987",
                    "display": "DOE, JOE"
                }
            }
        },
        {
            "id": "MedicationAdministration/d8f04811-a8d2-44af-90a6-b627b07f4493",
            "content": {
                "resourceType": "MedicationAdministration",
                "status": "completed",
                "practitioner": {
                    "reference": "Practitioner/unknown",
                    "display": "Unknown"
                },
                "whenGiven": {
                    "start": "2012-11-01",
                    "end": "2012-12-31"
                },
                "dosage": [
                    {
                        "route": {
                            "coding": [
                                {
                                    "system": "urn:oid:2.16.840.1.113883.3.26.1.1",
                                    "code": "C38288",
                                    "display": "oral"
                                }
                            ],
                            "text": "oral"
                        },
                        "quantity": {
                            "value": 1
                        },
                        "timingPeriod": {
                            "start": "2012-11-01",
                            "end": "2012-12-31"
                        }
                    }
                ],
                "prescription": {
                    "reference": "MedicationPrescription/4dac0115-337d-41d9-a8e2-0ad0fcdfdaf2",
                    "display": "Ambien - 5mg by mouth once daily before bed"
                },
                "medication": {
                    "reference": "Medication/d753315c-73e9-4826-abe7-8eca850c3913",
                    "display": "Ambien - 5mg by mouth once daily before bed"
                },
                "patient": {
                    "reference": "Patient/some-id-here-1987",
                    "display": "DOE, JOE"
                }
            }
        },
        {
            "id": "Substance/253d79ec-34ec-4674-86cc-21b49aefcf19",
            "content": {
                "resourceType": "Substance",
                "type": {
                    "coding": [
                        {
                            "system": "http://www.nlm.nih.gov/research/umls/rxnorm",
                            "code": "70618",
                            "display": "Penicillin"
                        }
                    ],
                    "text": "Penicillin"
                }
            }
        },
        {
            "id": "Substance/0c1137b0-15c5-4945-bbef-68a62bf6849c",
            "content": {
                "resourceType": "Substance",
                "type": {
                    "coding": [
                        {
                            "system": "http://fdasis.nlm.nih.gov",
                            "code": "3729L8MA2C",
                            "display": "Bee Pollen"
                        }
                    ],
                    "text": "Bee Pollen"
                }
            }
        },
        {
            "id": "Medication/47c29486-e285-4ef1-bbca-fd085e9882ca",
            "content": {
                "resourceType": "Medication",
                "name": "Lisinopril - 20mg by mouth once daily",
                "code": {
                    "coding": [
                        {
                            "system": "http://www.nlm.nih.gov/research/umls/rxnorm",
                            "code": "314077",
                            "display": "Lisinopril 20 MG Oral Tablet"
                        }
                    ],
                    "text": "Lisinopril 20 MG Oral Tablet"
                }
            }
        },
        {
            "id": "Medication/0e91c60b-b1b4-4a7a-8662-c858fe9239ec",
            "content": {
                "resourceType": "Medication",
                "name": "Lisinopril - 20mg by mouth once daily",
                "code": {
                    "coding": [
                        {
                            "system": "http://www.nlm.nih.gov/research/umls/rxnorm",
                            "code": "314077",
                            "display": "Lisinopril 20 MG Oral Tablet"
                        }
                    ],
                    "text": "Lisinopril 20 MG Oral Tablet"
                }
            }
        },
        {
            "id": "Medication/c2215ba9-63a7-41ad-a6ea-e9e74d74d2f4",
            "content": {
                "resourceType": "Medication",
                "name": "Lasix - 40mg by mouth once daily",
                "code": {
                    "coding": [
                        {
                            "system": "http://www.nlm.nih.gov/research/umls/rxnorm",
                            "code": "313988",
                            "display": "Furosemide 40 MG Oral Tablet"
                        }
                    ],
                    "text": "Furosemide 40 MG Oral Tablet"
                }
            }
        },
        {
            "id": "Medication/f2477af3-f7c7-44fa-9925-d71df493c029",
            "content": {
                "resourceType": "Medication",
                "name": "Lasix - 40mg by mouth once daily",
                "code": {
                    "coding": [
                        {
                            "system": "http://www.nlm.nih.gov/research/umls/rxnorm",
                            "code": "313988",
                            "display": "Furosemide 40 MG Oral Tablet"
                        }
                    ],
                    "text": "Furosemide 40 MG Oral Tablet"
                }
            }
        },
        {
            "id": "Medication/0104b2d2-df47-46f0-b9ac-328f86b4bd89",
            "content": {
                "resourceType": "Medication",
                "name": "K-Dur - 10mEq/L by mouth once daily",
                "code": {
                    "coding": [
                        {
                            "system": "http://www.nlm.nih.gov/research/umls/rxnorm",
                            "code": "706459",
                            "display": "K-Dur 10 MEQ Extended Release Tablet"
                        }
                    ],
                    "text": "K-Dur 10 MEQ Extended Release Tablet"
                }
            }
        },
        {
            "id": "Medication/30041991-859d-4f01-9eb6-25c329ab359e",
            "content": {
                "resourceType": "Medication",
                "name": "K-Dur - 10mEq/L by mouth once daily",
                "code": {
                    "coding": [
                        {
                            "system": "http://www.nlm.nih.gov/research/umls/rxnorm",
                            "code": "706459",
                            "display": "K-Dur 10 MEQ Extended Release Tablet"
                        }
                    ],
                    "text": "K-Dur 10 MEQ Extended Release Tablet"
                }
            }
        },
        {
            "id": "Medication/8c2afd3d-13b8-4fa4-9a34-3c4666821bf9",
            "content": {
                "resourceType": "Medication",
                "name": "Norvasc - 10mg by mouth once daily",
                "code": {
                    "coding": [
                        {
                            "system": "http://www.nlm.nih.gov/research/umls/rxnorm",
                            "code": "308135",
                            "display": "Amlodipine 10 MG Oral Tablet"
                        }
                    ],
                    "text": "Amlodipine 10 MG Oral Tablet"
                }
            }
        },
        {
            "id": "Medication/54dd3893-03d1-4c3f-867a-1d29030d2f7b",
            "content": {
                "resourceType": "Medication",
                "name": "Norvasc - 10mg by mouth once daily",
                "code": {
                    "coding": [
                        {
                            "system": "http://www.nlm.nih.gov/research/umls/rxnorm",
                            "code": "308135",
                            "display": "Amlodipine 10 MG Oral Tablet"
                        }
                    ],
                    "text": "Amlodipine 10 MG Oral Tablet"
                }
            }
        },
        {
            "id": "Medication/62679b75-d73a-4bf2-b554-a65d8813105a",
            "content": {
                "resourceType": "Medication",
                "name": "Zocor - 40mg by mouth once daily before bed",
                "code": {
                    "coding": [
                        {
                            "system": "http://www.nlm.nih.gov/research/umls/rxnorm",
                            "code": "198211",
                            "display": "Simvastatin 40 MG Oral Tablet"
                        }
                    ],
                    "text": "Simvastatin 40 MG Oral Tablet"
                }
            }
        },
        {
            "id": "Medication/c53a1dff-ecd9-4026-b342-21c34af42879",
            "content": {
                "resourceType": "Medication",
                "name": "Zocor - 40mg by mouth once daily before bed",
                "code": {
                    "coding": [
                        {
                            "system": "http://www.nlm.nih.gov/research/umls/rxnorm",
                            "code": "198211",
                            "display": "Simvastatin 40 MG Oral Tablet"
                        }
                    ],
                    "text": "Simvastatin 40 MG Oral Tablet"
                }
            }
        },
        {
            "id": "Medication/385cf655-91d4-4f42-9857-8c95416557c9",
            "content": {
                "resourceType": "Medication",
                "name": "Lantus - 36 units once daily before bed",
                "code": {
                    "coding": [
                        {
                            "system": "http://www.nlm.nih.gov/research/umls/rxnorm",
                            "code": "311041",
                            "display": "Insulin Glargine 100 UNT/ML Injectable Solution"
                        }
                    ],
                    "text": "Insulin Glargine 100 UNT/ML Injectable Solution"
                }
            }
        },
        {
            "id": "Medication/f8e4fdc8-f086-48b9-a511-218d719a9a1e",
            "content": {
                "resourceType": "Medication",
                "name": "Lantus - 36 units once daily before bed",
                "code": {
                    "coding": [
                        {
                            "system": "http://www.nlm.nih.gov/research/umls/rxnorm",
                            "code": "311041",
                            "display": "Insulin Glargine 100 UNT/ML Injectable Solution"
                        }
                    ],
                    "text": "Insulin Glargine 100 UNT/ML Injectable Solution"
                }
            }
        },
        {
            "id": "Medication/43161ad5-7fc4-4a07-b480-1b2eec926df7",
            "content": {
                "resourceType": "Medication",
                "name": "gliburide - 2.5mg by mouth once daily",
                "code": {
                    "coding": [
                        {
                            "system": "http://www.nlm.nih.gov/research/umls/rxnorm",
                            "code": "861748",
                            "display": "glyBURIDE 2.5 MG / metFORMIN hydrochloride 500 MG Oral Tablet"
                        }
                    ],
                    "text": "glyBURIDE 2.5 MG / metFORMIN hydrochloride 500 MG Oral Tablet"
                }
            }
        },
        {
            "id": "Medication/8a0b67b9-7b2e-4207-8f6b-7de8ae9f1a40",
            "content": {
                "resourceType": "Medication",
                "name": "gliburide - 2.5mg by mouth once daily",
                "code": {
                    "coding": [
                        {
                            "system": "http://www.nlm.nih.gov/research/umls/rxnorm",
                            "code": "861748",
                            "display": "glyBURIDE 2.5 MG / metFORMIN hydrochloride 500 MG Oral Tablet"
                        }
                    ],
                    "text": "glyBURIDE 2.5 MG / metFORMIN hydrochloride 500 MG Oral Tablet"
                }
            }
        },
        {
            "id": "Medication/a8b664bc-fb44-43d9-a27d-a114b50c5685",
            "content": {
                "resourceType": "Medication",
                "name": "synthroid - 0.1mg by mouth once daily",
                "code": {
                    "coding": [
                        {
                            "system": "http://www.nlm.nih.gov/research/umls/rxnorm",
                            "code": "892246",
                            "display": "Levothyroxine Sodium 0.1 MG Oral Tablet"
                        }
                    ],
                    "text": "Levothyroxine Sodium 0.1 MG Oral Tablet"
                }
            }
        },
        {
            "id": "Medication/741582eb-f41b-408b-ae43-4a1fbda108a0",
            "content": {
                "resourceType": "Medication",
                "name": "synthroid - 0.1mg by mouth once daily",
                "code": {
                    "coding": [
                        {
                            "system": "http://www.nlm.nih.gov/research/umls/rxnorm",
                            "code": "892246",
                            "display": "Levothyroxine Sodium 0.1 MG Oral Tablet"
                        }
                    ],
                    "text": "Levothyroxine Sodium 0.1 MG Oral Tablet"
                }
            }
        },
        {
            "id": "Medication/5028789f-f23f-4f9c-9915-8a50a2871939",
            "content": {
                "resourceType": "Medication",
                "name": "Aleve - 220mg by mouth twice daily",
                "code": {
                    "coding": [
                        {
                            "system": "http://www.nlm.nih.gov/research/umls/rxnorm",
                            "code": "1112231",
                            "display": "Naproxen sodium 220 MG Oral Capsule"
                        }
                    ],
                    "text": "Naproxen sodium 220 MG Oral Capsule"
                }
            }
        },
        {
            "id": "Medication/73f1b64e-ad44-4f8e-a983-b40874de2b54",
            "content": {
                "resourceType": "Medication",
                "name": "Aleve - 220mg by mouth twice daily",
                "code": {
                    "coding": [
                        {
                            "system": "http://www.nlm.nih.gov/research/umls/rxnorm",
                            "code": "1112231",
                            "display": "Naproxen sodium 220 MG Oral Capsule"
                        }
                    ],
                    "text": "Naproxen sodium 220 MG Oral Capsule"
                }
            }
        },
        {
            "id": "Medication/ab2b1ff3-51ea-4d6e-9b03-87e9b29c0364",
            "content": {
                "resourceType": "Medication",
                "name": "Ultram - 50mg by mouth four times daily as needed for joint pain",
                "code": {
                    "coding": [
                        {
                            "system": "http://www.nlm.nih.gov/research/umls/rxnorm",
                            "code": "835603",
                            "display": "traMADol hydrochloride 50 MG Oral Tablet"
                        }
                    ],
                    "text": "traMADol hydrochloride 50 MG Oral Tablet"
                }
            }
        },
        {
            "id": "Medication/2ea7e073-5c2e-4b43-8a62-786a8f9c4af5",
            "content": {
                "resourceType": "Medication",
                "name": "Ultram - 50mg by mouth four times daily as needed for joint pain",
                "code": {
                    "coding": [
                        {
                            "system": "http://www.nlm.nih.gov/research/umls/rxnorm",
                            "code": "835603",
                            "display": "traMADol hydrochloride 50 MG Oral Tablet"
                        }
                    ],
                    "text": "traMADol hydrochloride 50 MG Oral Tablet"
                }
            }
        },
        {
            "id": "Medication/29e64922-3cf3-4299-bd3d-b16306efb05c",
            "content": {
                "resourceType": "Medication",
                "name": "Aspirin - 81mg by mouth once daily",
                "code": {
                    "coding": [
                        {
                            "system": "http://www.nlm.nih.gov/research/umls/rxnorm",
                            "code": "308416",
                            "display": "Aspirin 81 MG Enteric Coated Tablet"
                        }
                    ],
                    "text": "Aspirin 81 MG Enteric Coated Tablet"
                }
            }
        },
        {
            "id": "Medication/01cc5bf4-245f-4769-a4b0-189dd544d895",
            "content": {
                "resourceType": "Medication",
                "name": "Aspirin - 81mg by mouth once daily",
                "code": {
                    "coding": [
                        {
                            "system": "http://www.nlm.nih.gov/research/umls/rxnorm",
                            "code": "308416",
                            "display": "Aspirin 81 MG Enteric Coated Tablet"
                        }
                    ],
                    "text": "Aspirin 81 MG Enteric Coated Tablet"
                }
            }
        },
        {
            "id": "Medication/cda6f436-e9e0-4ea8-b4e5-60ce3e53d98e",
            "content": {
                "resourceType": "Medication",
                "name": "Lopressor - 50mg by mouth twice daily",
                "code": {
                    "coding": [
                        {
                            "system": "http://www.nlm.nih.gov/research/umls/rxnorm",
                            "code": "866514",
                            "display": "Metoprolol Tartrate 50 MG Oral Tablet"
                        }
                    ],
                    "text": "Metoprolol Tartrate 50 MG Oral Tablet"
                }
            }
        },
        {
            "id": "Medication/dd0543eb-b4ca-4bf1-b193-a965b1bb1920",
            "content": {
                "resourceType": "Medication",
                "name": "Lopressor - 50mg by mouth twice daily",
                "code": {
                    "coding": [
                        {
                            "system": "http://www.nlm.nih.gov/research/umls/rxnorm",
                            "code": "866514",
                            "display": "Metoprolol Tartrate 50 MG Oral Tablet"
                        }
                    ],
                    "text": "Metoprolol Tartrate 50 MG Oral Tablet"
                }
            }
        },
        {
            "id": "Medication/df023894-5887-4cf2-b7c4-7c2633a3fe18",
            "content": {
                "resourceType": "Medication",
                "name": "Flomax - 0.4mg by mouth once daily",
                "code": {
                    "coding": [
                        {
                            "system": "http://www.nlm.nih.gov/research/umls/rxnorm",
                            "code": "863671",
                            "display": "Flomax 0.4 MG Oral Capsule"
                        }
                    ],
                    "text": "Flomax 0.4 MG Oral Capsule"
                }
            }
        },
        {
            "id": "Medication/c8ea71bf-fd83-4232-9bd3-1acaa2f44577",
            "content": {
                "resourceType": "Medication",
                "name": "Flomax - 0.4mg by mouth once daily",
                "code": {
                    "coding": [
                        {
                            "system": "http://www.nlm.nih.gov/research/umls/rxnorm",
                            "code": "863671",
                            "display": "Flomax 0.4 MG Oral Capsule"
                        }
                    ],
                    "text": "Flomax 0.4 MG Oral Capsule"
                }
            }
        },
        {
            "id": "Medication/39c18564-2cd2-4328-bcf4-836aaad718ed",
            "content": {
                "resourceType": "Medication",
                "name": "Proscar - 5mg by mouth once daily",
                "code": {
                    "coding": [
                        {
                            "system": "http://www.nlm.nih.gov/research/umls/rxnorm",
                            "code": "201961",
                            "display": "Proscar 5 MG Oral Tablet"
                        }
                    ],
                    "text": "Proscar 5 MG Oral Tablet"
                }
            }
        },
        {
            "id": "Medication/c85e0a4d-96f5-4d34-bd4f-d7b93405d8d5",
            "content": {
                "resourceType": "Medication",
                "name": "Proscar - 5mg by mouth once daily",
                "code": {
                    "coding": [
                        {
                            "system": "http://www.nlm.nih.gov/research/umls/rxnorm",
                            "code": "201961",
                            "display": "Proscar 5 MG Oral Tablet"
                        }
                    ],
                    "text": "Proscar 5 MG Oral Tablet"
                }
            }
        },
        {
            "id": "Medication/592bc0e5-8abe-4528-8227-0532738159e5",
            "content": {
                "resourceType": "Medication",
                "name": "Neurontin - 300mg by mouth three times daily",
                "code": {
                    "coding": [
                        {
                            "system": "http://www.nlm.nih.gov/research/umls/rxnorm",
                            "code": "105029",
                            "display": "Neurontin 300 MG Oral Capsule"
                        }
                    ],
                    "text": "Neurontin 300 MG Oral Capsule"
                }
            }
        },
        {
            "id": "Medication/9f0a83f5-23b0-4ea6-9874-02038ebf773f",
            "content": {
                "resourceType": "Medication",
                "name": "Neurontin - 300mg by mouth three times daily",
                "code": {
                    "coding": [
                        {
                            "system": "http://www.nlm.nih.gov/research/umls/rxnorm",
                            "code": "105029",
                            "display": "Neurontin 300 MG Oral Capsule"
                        }
                    ],
                    "text": "Neurontin 300 MG Oral Capsule"
                }
            }
        },
        {
            "id": "Medication/c58ea249-c1e6-4eb7-98e1-6d834ec12408",
            "content": {
                "resourceType": "Medication",
                "name": "Ativan - 1mg by mouth three times daily as needed for irritability",
                "code": {
                    "coding": [
                        {
                            "system": "http://www.nlm.nih.gov/research/umls/rxnorm",
                            "code": "197900",
                            "display": "Lorazepam 0.5 MG Oral Tablet"
                        }
                    ],
                    "text": "Lorazepam 0.5 MG Oral Tablet"
                }
            }
        },
        {
            "id": "Medication/40a889a7-17a7-4b49-a3cf-e1979c837140",
            "content": {
                "resourceType": "Medication",
                "name": "Ativan - 1mg by mouth three times daily as needed for irritability",
                "code": {
                    "coding": [
                        {
                            "system": "http://www.nlm.nih.gov/research/umls/rxnorm",
                            "code": "197900",
                            "display": "Lorazepam 0.5 MG Oral Tablet"
                        }
                    ],
                    "text": "Lorazepam 0.5 MG Oral Tablet"
                }
            }
        },
        {
            "id": "Medication/ba4bdfe7-a2dd-4df4-aaf2-26bbf183a14f",
            "content": {
                "resourceType": "Medication",
                "name": "miodarone - 200mg by mouth two times daily",
                "code": {
                    "coding": [
                        {
                            "system": "http://www.nlm.nih.gov/research/umls/rxnorm",
                            "code": "833530",
                            "display": "Cordarone 200 MG Oral Tablet"
                        }
                    ],
                    "text": "Cordarone 200 MG Oral Tablet"
                }
            }
        },
        {
            "id": "Medication/3f2ebe14-44b2-4015-89e4-b0ff66b221c2",
            "content": {
                "resourceType": "Medication",
                "name": "miodarone - 200mg by mouth two times daily",
                "code": {
                    "coding": [
                        {
                            "system": "http://www.nlm.nih.gov/research/umls/rxnorm",
                            "code": "833530",
                            "display": "Cordarone 200 MG Oral Tablet"
                        }
                    ],
                    "text": "Cordarone 200 MG Oral Tablet"
                }
            }
        },
        {
            "id": "Medication/82a84507-f4a1-4344-bc70-73361248f8f8",
            "content": {
                "resourceType": "Medication",
                "name": "Coumadin - 5mg by mouth every other day starting 11/1/2012",
                "code": {
                    "coding": [
                        {
                            "system": "http://www.nlm.nih.gov/research/umls/rxnorm",
                            "code": "855332",
                            "display": "Warfarin Sodium 5 MG Oral Tablet"
                        }
                    ],
                    "text": "Warfarin Sodium 5 MG Oral Tablet"
                }
            }
        },
        {
            "id": "Medication/b2ae296d-a92f-42a3-b7a2-098a3262d9a3",
            "content": {
                "resourceType": "Medication",
                "name": "Coumadin - 5mg by mouth every other day starting 11/1/2012",
                "code": {
                    "coding": [
                        {
                            "system": "http://www.nlm.nih.gov/research/umls/rxnorm",
                            "code": "855332",
                            "display": "Warfarin Sodium 5 MG Oral Tablet"
                        }
                    ],
                    "text": "Warfarin Sodium 5 MG Oral Tablet"
                }
            }
        },
        {
            "id": "Medication/3bfaa37f-9749-457f-a2a3-19a84f25cbea",
            "content": {
                "resourceType": "Medication",
                "name": "Coumadin - 2.5mg by mouth every other day starting 11/2/2012",
                "code": {
                    "coding": [
                        {
                            "system": "http://www.nlm.nih.gov/research/umls/rxnorm",
                            "code": "855312",
                            "display": "Warfarin Sodium 2.5 MG Oral Tablet"
                        }
                    ],
                    "text": "Warfarin Sodium 2.5 MG Oral Tablet"
                }
            }
        },
        {
            "id": "Medication/d9d9a6dc-4187-4d02-b260-29bf0e7b4b4e",
            "content": {
                "resourceType": "Medication",
                "name": "Coumadin - 2.5mg by mouth every other day starting 11/2/2012",
                "code": {
                    "coding": [
                        {
                            "system": "http://www.nlm.nih.gov/research/umls/rxnorm",
                            "code": "855312",
                            "display": "Warfarin Sodium 2.5 MG Oral Tablet"
                        }
                    ],
                    "text": "Warfarin Sodium 2.5 MG Oral Tablet"
                }
            }
        },
        {
            "id": "Medication/25cf364f-cc93-4a20-b767-b716ee985d8f",
            "content": {
                "resourceType": "Medication",
                "name": "Ambien - 5mg by mouth once daily before bed",
                "code": {
                    "coding": [
                        {
                            "system": "http://www.nlm.nih.gov/research/umls/rxnorm",
                            "code": "854878",
                            "display": "Ambien 5 MG Oral Tablet"
                        }
                    ],
                    "text": "Ambien 5 MG Oral Tablet"
                }
            }
        },
        {
            "id": "Medication/d753315c-73e9-4826-abe7-8eca850c3913",
            "content": {
                "resourceType": "Medication",
                "name": "Ambien - 5mg by mouth once daily before bed",
                "code": {
                    "coding": [
                        {
                            "system": "http://www.nlm.nih.gov/research/umls/rxnorm",
                            "code": "854878",
                            "display": "Ambien 5 MG Oral Tablet"
                        }
                    ],
                    "text": "Ambien 5 MG Oral Tablet"
                }
            }
        }
    ]
}