{
    "resourceType": "Bundle",
    "totalResults": 66,
    "entry": [
        {
            "id": "Patient/some-id-here-1987",
            "content": {
                "resourceType": "Patient",
                "identifier": [
                    {
                        "system": "http://www.midea-tecg.com",
                        "value": "JOE_DOE_IDENTIFIER"
                    }
                ],
                "name": [
                    {
                        "family": [
                            "DOE"
                        ],
                        "given": [
                            "JOE"
                        ]
                    }
                ]
            }
        },
        {
            "id": "AdverseReaction/e6a91ccc-dd5d-4889-bcaf-8dabe9927468",
            "content": {
                "resourceType": "AdverseReaction",
                "symptom": [
                    {
                        "severity": "moderate",
                        "code": {
                            "coding": [
                                {
                                    "system": "http://snomed.info/sct",
                                    "code": "404640003",
                                    "display": "Dizziness"
                                }
                            ],
                            "text": "Dizziness"
                        }
                    }
                ],
                "didNotOccurFlag": false,
                "subject": {
                    "reference": "Patient/some-id-here-1987",
                    "display": "DOE, JOE"
                }
            }
        },
        {
            "id": "AllergyIntolerance/7ef48798-4fc7-4bab-83cd-99fd8fd2ba07",
            "content": {
                "resourceType": "AllergyIntolerance",
                "sensitivityType": "allergy",
                "recordedDate": "1960-01-01",
                "status": "confirmed",
                "contained": [
                    {
                        "id": "allergen",
                        "resourceType": "Substance",
                        "type": {
                            "coding": [
                                {
                                    "system": "http://www.nlm.nih.gov/research/umls/rxnorm",
                                    "code": "70618",
                                    "display": "Penicillin"
                                }
                            ],
                            "text": "Penicillin"
                        }
                    }
                ],
                "substance": {
                    "reference": "#allergen",
                    "display": "Penicillin"
                },
                "reaction": [
                    {
                        "reference": "AdverseReaction/e6a91ccc-dd5d-4889-bcaf-8dabe9927468",
                        "display": "Dizziness"
                    }
                ],
                "subject": {
                    "reference": "Patient/some-id-here-1987",
                    "display": "DOE, JOE"
                }
            }
        },
        {
            "id": "AdverseReaction/7793c8c1-1741-423c-84d1-23dcdb13ed98",
            "content": {
                "resourceType": "AdverseReaction",
                "symptom": [
                    {
                        "severity": "severe",
                        "code": {
                            "coding": [
                                {
                                    "system": "http://snomed.info/sct",
                                    "code": "417516000",
                                    "display": "Anaphylaxis due to substance"
                                }
                            ],
                            "text": "Anaphylaxis due to substance"
                        }
                    }
                ],
                "didNotOccurFlag": false,
                "subject": {
                    "reference": "Patient/some-id-here-1987",
                    "display": "DOE, JOE"
                }
            }
        },
        {
            "id": "AllergyIntolerance/ad07807d-3b36-444e-87b2-423345b4e252",
            "content": {
                "resourceType": "AllergyIntolerance",
                "sensitivityType": "allergy",
                "recordedDate": "1940-01-01",
                "status": "confirmed",
                "contained": [
                    {
                        "id": "allergen",
                        "resourceType": "Substance",
                        "type": {
                            "coding": [
                                {
                                    "system": "http://fdasis.nlm.nih.gov",
                                    "code": "3729L8MA2C",
                                    "display": "Bee Pollen"
                                }
                            ],
                            "text": "Bee Pollen"
                        }
                    }
                ],
                "substance": {
                    "reference": "#allergen",
                    "display": "Bee Pollen"
                },
                "reaction": [
                    {
                        "reference": "AdverseReaction/7793c8c1-1741-423c-84d1-23dcdb13ed98",
                        "display": "Anaphylaxis due to substance"
                    }
                ],
                "subject": {
                    "reference": "Patient/some-id-here-1987",
                    "display": "DOE, JOE"
                }
            }
        },
        {
            "id": "Condition/01c74ef9-821a-4849-8543-7f0875bee161",
            "content": {
                "resourceType": "Condition",
                "status": "confirmed",
                "onsetDate": "2005-05-01",
                "dateAsserted": "2005-05-01",
                "code": {
                    "coding": [
                        {
                            "system": "http://snomed.info/sct",
                            "code": "5962100",
                            "display": "Essential Hypertension"
                        }
                    ],
                    "text": "Essential Hypertension"
                },
                "subject": {
                    "reference": "Patient/some-id-here-1987",
                    "display": "DOE, JOE"
                }
            }
        },
        {
            "id": "Condition/266fc4ed-f9fa-45d7-ae22-59c9fc38f77b",
            "content": {
                "resourceType": "Condition",
                "status": "confirmed",
                "onsetDate": "2005-05-01",
                "dateAsserted": "2005-05-01",
                "code": {
                    "coding": [
                        {
                            "system": "http://snomed.info/sct",
                            "code": "5582204",
                            "display": "Hyperlipidemia"
                        }
                    ],
                    "text": "Hyperlipidemia"
                },
                "subject": {
                    "reference": "Patient/some-id-here-1987",
                    "display": "DOE, JOE"
                }
            }
        },
        {
            "id": "Condition/f244b43c-eed8-4cd1-b708-8b3f39b557e1",
            "content": {
                "resourceType": "Condition",
                "status": "confirmed",
                "onsetDate": "2008-11-01",
                "dateAsserted": "2008-11-01",
                "code": {
                    "coding": [
                        {
                            "system": "http://snomed.info/sct",
                            "code": "44054006",
                            "display": "Diabetes Mellitus Type II"
                        }
                    ],
                    "text": "Diabetes Mellitus Type II"
                },
                "subject": {
                    "reference": "Patient/some-id-here-1987",
                    "display": "DOE, JOE"
                }
            }
        },
        {
            "id": "Condition/98189370-474c-4635-b38f-59810c3b65e7",
            "content": {
                "resourceType": "Condition",
                "status": "confirmed",
                "onsetDate": "2009-01-01",
                "dateAsserted": "2009-01-01",
                "code": {
                    "coding": [
                        {
                            "system": "http://snomed.info/sct",
                            "code": "433144002",
                            "display": "Chronic Kidney Disease Stage III"
                        }
                    ],
                    "text": "Chronic Kidney Disease Stage III"
                },
                "subject": {
                    "reference": "Patient/some-id-here-1987",
                    "display": "DOE, JOE"
                }
            }
        },
        {
            "id": "Condition/9c21ed8c-0145-4445-9378-4d62388b4e26",
            "content": {
                "resourceType": "Condition",
                "status": "confirmed",
                "onsetDate": "2006-11-01",
                "dateAsserted": "2006-11-01",
                "code": {
                    "coding": [
                        {
                            "system": "http://snomed.info/sct",
                            "code": "40930008",
                            "display": "Hypothyroidism"
                        }
                    ],
                    "text": "Hypothyroidism"
                },
                "subject": {
                    "reference": "Patient/some-id-here-1987",
                    "display": "DOE, JOE"
                }
            }
        },
        {
            "id": "Condition/e8027524-7ac9-43b5-adc4-7c6d9cac68fc",
            "content": {
                "resourceType": "Condition",
                "status": "confirmed",
                "onsetDate": "2009-07-01",
                "dateAsserted": "2009-07-01",
                "code": {
                    "coding": [
                        {
                            "system": "http://snomed.info/sct",
                            "code": "8957000",
                            "display": "Coronary Artery Disease"
                        }
                    ],
                    "text": "Coronary Artery Disease"
                },
                "subject": {
                    "reference": "Patient/some-id-here-1987",
                    "display": "DOE, JOE"
                }
            }
        },
        {
            "id": "Condition/ddd96431-ade6-499d-a69f-011a01157d53",
            "content": {
                "resourceType": "Condition",
                "status": "confirmed",
                "onsetDate": "2008-04-01",
                "dateAsserted": "2008-04-01",
                "code": {
                    "coding": [
                        {
                            "system": "http://snomed.info/sct",
                            "code": "266569009",
                            "display": "Benign prostatic hyperplasia"
                        }
                    ],
                    "text": "Benign prostatic hyperplasia"
                },
                "subject": {
                    "reference": "Patient/some-id-here-1987",
                    "display": "DOE, JOE"
                }
            }
        },
        {
            "id": "Condition/d0a5c028-6841-42d9-bc28-c03d75fce62f",
            "content": {
                "resourceType": "Condition",
                "status": "confirmed",
                "onsetDate": "2010-09-01",
                "dateAsserted": "2010-09-01",
                "code": {
                    "coding": [
                        {
                            "system": "http://snomed.info/sct",
                            "code": "49436004",
                            "display": "Atrial fibrillation"
                        }
                    ],
                    "text": "Atrial fibrillation"
                },
                "subject": {
                    "reference": "Patient/some-id-here-1987",
                    "display": "DOE, JOE"
                }
            }
        },
        {
            "id": "Condition/8468235e-12ad-47aa-bdb3-3bd071ad428f",
            "content": {
                "resourceType": "Condition",
                "status": "confirmed",
                "onsetDate": "2006-06-01",
                "dateAsserted": "2006-06-01",
                "code": {
                    "coding": [
                        {
                            "system": "http://snomed.info/sct",
                            "code": "230572002",
                            "display": "Diabetic neuropathy"
                        }
                    ],
                    "text": "Diabetic neuropathy"
                },
                "subject": {
                    "reference": "Patient/some-id-here-1987",
                    "display": "DOE, JOE"
                }
            }
        },
        {
            "id": "Condition/0d061f27-4435-4c74-82a4-e1d992bf2c32",
            "content": {
                "resourceType": "Condition",
                "status": "confirmed",
                "onsetDate": "1997-10-01",
                "dateAsserted": "1997-10-01",
                "code": {
                    "coding": [
                        {
                            "system": "http://snomed.info/sct",
                            "code": "238134004",
                            "display": "Generalized obesity"
                        }
                    ],
                    "text": "Generalized obesity"
                },
                "subject": {
                    "reference": "Patient/some-id-here-1987",
                    "display": "DOE, JOE"
                }
            }
        },
        {
            "id": "Condition/64592b77-5d5a-448e-9212-00e2c18c19fe",
            "content": {
                "resourceType": "Condition",
                "status": "confirmed",
                "onsetDate": "2011-09-01",
                "dateAsserted": "2011-09-01",
                "code": {
                    "coding": [
                        {
                            "system": "http://snomed.info/sct",
                            "code": "193462001",
                            "display": "Insomnia"
                        }
                    ],
                    "text": "Insomnia"
                },
                "subject": {
                    "reference": "Patient/some-id-here-1987",
                    "display": "DOE, JOE"
                }
            }
        },
        {
            "id": "Observation/3b90990c-5fb8-4a30-ad84-b65cd06c6180",
            "content": {
                "resourceType": "Observation",
                "name": {
                    "coding": [
                        {
                            "system": "http://loinc.org",
                            "code": "3016-3",
                            "display": "Thyrotropin [Units/volume] in Serum or Plasma"
                        }
                    ],
                    "text": "Thyrotropin [Units/volume] in Serum or Plasma"
                },
                "valueQuantity": {
                    "value": 6,
                    "units": "m[IU]/L",
                    "code": "m[IU]/L",
                    "system": "http://unitsofmeasure.org"
                },
                "issued": "2012-11-26",
                "status": "final",
                "reliability": "ok",
                "extension": [
                    {
                        "url": "http://amida.com/fhir/Profile/extensions#observation-type",
                        "valueCoding": {
                            "code": "11502-2",
                            "display": "Laboratory report",
                            "system": "http://loinc.org"
                        }
                    }
                ],
                "interpretation": {
                    "coding": [
                        {
                            "system": "http://hl7.org/fhir/v2/0078",
                            "code": "A",
                            "display": "abnormal"
                        }
                    ],
                    "text": "abnormal"
                },
                "referenceRange": [
                    {
                        "meaning": {
                            "coding": [
                                {
                                    "system": "http://hl7.org/fhir/referencerange-meaning",
                                    "code": "normal",
                                    "display": "Normal Range"
                                }
                            ],
                            "text": "Normal Range"
                        },
                        "text": "normal: 0.29–5.11 IU/ml"
                    }
                ],
                "subject": {
                    "reference": "Patient/some-id-here-1987",
                    "display": "DOE, JOE"
                }
            }
        },
        {
            "id": "Observation/6ae61772-4ced-43f0-8c32-ce379384c748",
            "content": {
                "resourceType": "Observation",
                "name": {
                    "coding": [
                        {
                            "system": "http://loinc.org",
                            "code": "11579-0",
                            "display": "Thyrotropin [Units/volume] in Serum or Plasma by Detection limit less than or equal to 0.05 mIU/L"
                        }
                    ],
                    "text": "Thyrotropin [Units/volume] in Serum or Plasma by Detection limit less than or equal to 0.05 mIU/L"
                },
                "status": "final",
                "reliability": "ok",
                "related": [
                    {
                        "type": "has-component",
                        "target": {
                            "reference": "Observation/3b90990c-5fb8-4a30-ad84-b65cd06c6180"
                        }
                    }
                ],
                "extension": [
                    {
                        "url": "http://amida.com/fhir/Profile/extensions#observation-type",
                        "valueCoding": {
                            "code": "11502-2",
                            "display": "Laboratory report",
                            "system": "http://loinc.org"
                        }
                    }
                ],
                "subject": {
                    "reference": "Patient/some-id-here-1987",
                    "display": "DOE, JOE"
                }
            }
        },
        {
            "id": "Observation/40054ec0-a05d-4fc4-9629-5d747007fbf0",
            "content": {
                "resourceType": "Observation",
                "name": {
                    "coding": [
                        {
                            "system": "http://loinc.org",
                            "code": "4548-4",
                            "display": "Hemoglobin A1c/Hemoglobin.total in Blood"
                        }
                    ],
                    "text": "Hemoglobin A1c/Hemoglobin.total in Blood"
                },
                "valueQuantity": {
                    "value": 8,
                    "units": "%",
                    "code": "%",
                    "system": "http://unitsofmeasure.org"
                },
                "issued": "2012-11-26",
                "status": "final",
                "reliability": "ok",
                "extension": [
                    {
                        "url": "http://amida.com/fhir/Profile/extensions#observation-type",
                        "valueCoding": {
                            "code": "11502-2",
                            "display": "Laboratory report",
                            "system": "http://loinc.org"
                        }
                    }
                ],
                "interpretation": {
                    "coding": [
                        {
                            "system": "http://hl7.org/fhir/v2/0078",
                            "code": "A",
                            "display": "abnormal"
                        }
                    ],
                    "text": "abnormal"
                },
                "referenceRange": [
                    {
                        "meaning": {
                            "coding": [
                                {
                                    "system": "http://hl7.org/fhir/referencerange-meaning",
                                    "code": "normal",
                                    "display": "Normal Range"
                                }
                            ],
                            "text": "Normal Range"
                        },
                        "text": "normal: 4.0-5.6%"
                    }
                ],
                "subject": {
                    "reference": "Patient/some-id-here-1987",
                    "display": "DOE, JOE"
                }
            }
        },
        {
            "id": "Observation/809ae570-6925-4cbb-9363-ae0a258203ac",
            "content": {
                "resourceType": "Observation",
                "name": {
                    "coding": [
                        {
                            "system": "http://loinc.org",
                            "code": "2160-0",
                            "display": "Creatinine [Mass/volume] in Serum or Plasma"
                        }
                    ],
                    "text": "Creatinine [Mass/volume] in Serum or Plasma"
                },
                "valueQuantity": {
                    "value": 1.5,
                    "units": "mg/dL",
                    "code": "mg/dL",
                    "system": "http://unitsofmeasure.org"
                },
                "issued": "2012-11-26",
                "status": "final",
                "reliability": "ok",
                "extension": [
                    {
                        "url": "http://amida.com/fhir/Profile/extensions#observation-type",
                        "valueCoding": {
                            "code": "11502-2",
                            "display": "Laboratory report",
                            "system": "http://loinc.org"
                        }
                    }
                ],
                "interpretation": {
                    "coding": [
                        {
                            "system": "http://hl7.org/fhir/v2/0078",
                            "code": "A",
                            "display": "abnormal"
                        }
                    ],
                    "text": "abnormal"
                },
                "referenceRange": [
                    {
                        "meaning": {
                            "coding": [
                                {
                                    "system": "http://hl7.org/fhir/referencerange-meaning",
                                    "code": "normal",
                                    "display": "Normal Range"
                                }
                            ],
                            "text": "Normal Range"
                        },
                        "text": "normal: below 1.5 mg/dL"
                    }
                ],
                "subject": {
                    "reference": "Patient/some-id-here-1987",
                    "display": "DOE, JOE"
                }
            }
        },
        {
            "id": "Observation/527e5490-d1ba-499a-951b-9e71e5708394",
            "content": {
                "resourceType": "Observation",
                "name": {
                    "coding": [
                        {
                            "system": "http://loinc.org",
                            "code": "6301-6",
                            "display": "INR in Platelet poor plasma by Coagulation assay"
                        }
                    ],
                    "text": "INR in Platelet poor plasma by Coagulation assay"
                },
                "valueQuantity": {
                    "value": 1.5
                },
                "issued": "2012-11-26",
                "status": "final",
                "reliability": "ok",
                "extension": [
                    {
                        "url": "http://amida.com/fhir/Profile/extensions#observation-type",
                        "valueCoding": {
                            "code": "11502-2",
                            "display": "Laboratory report",
                            "system": "http://loinc.org"
                        }
                    }
                ],
                "interpretation": {
                    "coding": [
                        {
                            "system": "http://hl7.org/fhir/v2/0078",
                            "code": "A",
                            "display": "abnormal"
                        }
                    ],
                    "text": "abnormal"
                },
                "referenceRange": [
                    {
                        "meaning": {
                            "coding": [
                                {
                                    "system": "http://hl7.org/fhir/referencerange-meaning",
                                    "code": "normal",
                                    "display": "Normal Range"
                                }
                            ],
                            "text": "Normal Range"
                        },
                        "text": "Normal reference range 1.0-1.5; Targeted INR 2.0-3.0"
                    }
                ],
                "subject": {
                    "reference": "Patient/some-id-here-1987",
                    "display": "DOE, JOE"
                }
            }
        },
        {
            "id": "Observation/f2e9be3a-c820-4069-80b6-420e7eb8c543",
            "content": {
                "resourceType": "Observation",
                "name": {
                    "coding": [
                        {
                            "system": "http://loinc.org",
                            "code": "18041-4",
                            "display": "Aortic valve Ejection [Time] by US.doppler"
                        }
                    ],
                    "text": "Aortic valve Ejection [Time] by US.doppler"
                },
                "valueQuantity": {
                    "value": 55,
                    "units": "%",
                    "code": "%",
                    "system": "http://unitsofmeasure.org"
                },
                "issued": "2012-11-26",
                "status": "final",
                "reliability": "ok",
                "extension": [
                    {
                        "url": "http://amida.com/fhir/Profile/extensions#observation-type",
                        "valueCoding": {
                            "code": "11502-2",
                            "display": "Laboratory report",
                            "system": "http://loinc.org"
                        }
                    }
                ],
                "interpretation": {
                    "coding": [
                        {
                            "system": "http://hl7.org/fhir/v2/0078",
                            "code": "N",
                            "display": "normal"
                        }
                    ],
                    "text": "normal"
                },
                "referenceRange": [
                    {
                        "meaning": {
                            "coding": [
                                {
                                    "system": "http://hl7.org/fhir/referencerange-meaning",
                                    "code": "normal",
                                    "display": "Normal Range"
                                }
                            ],
                            "text": "Normal Range"
                        },
                        "text": "Normal: 50-75%"
                    }
                ],
                "subject": {
                    "reference": "Patient/some-id-here-1987",
                    "display": "DOE, JOE"
                }
            }
        },
        {
            "id": "Observation/b9a735ad-77ad-4478-b76c-206269f4d560",
            "content": {
                "resourceType": "Observation",
                "name": {
                    "coding": [
                        {
                            "system": "http://loinc.org",
                            "code": "18089-3",
                            "display": "AV Orifice Area US"
                        }
                    ],
                    "text": "AV Orifice Area US"
                },
                "valueQuantity": {
                    "value": 1.5,
                    "units": "cm2",
                    "code": "cm2",
                    "system": "http://unitsofmeasure.org"
                },
                "issued": "2012-11-26",
                "status": "final",
                "reliability": "ok",
                "extension": [
                    {
                        "url": "http://amida.com/fhir/Profile/extensions#observation-type",
                        "valueCoding": {
                            "code": "11502-2",
                            "display": "Laboratory report",
                            "system": "http://loinc.org"
                        }
                    }
                ],
                "interpretation": {
                    "coding": [
                        {
                            "system": "http://hl7.org/fhir/v2/0078",
                            "code": "A",
                            "display": "abnormal"
                        }
                    ],
                    "text": "abnormal"
                },
                "referenceRange": [
                    {
                        "meaning": {
                            "coding": [
                                {
                                    "system": "http://hl7.org/fhir/referencerange-meaning",
                                    "code": "normal",
                                    "display": "Normal Range"
                                }
                            ],
                            "text": "Normal Range"
                        },
                        "text": "Normal (3.0-4.0 cm2), mild (1.5–2.0 cm2), moderate (1.0–1.5 cm2), severe (less than 1.0 cm2)"
                    }
                ],
                "subject": {
                    "reference": "Patient/some-id-here-1987",
                    "display": "DOE, JOE"
                }
            }
        },
        {
            "id": "Observation/13a3f4f8-419c-45b8-a682-ff8d55f21252",
            "content": {
                "resourceType": "Observation",
                "name": {
                    "coding": [
                        {
                            "system": "http://loinc.org",
                            "code": "34552-0",
                            "display": "2D echocardiogram panel"
                        }
                    ],
                    "text": "2D echocardiogram panel"
                },
                "status": "final",
                "reliability": "ok",
                "related": [
                    {
                        "type": "has-component",
                        "target": {
                            "reference": "Observation/f2e9be3a-c820-4069-80b6-420e7eb8c543"
                        }
                    },
                    {
                        "type": "has-component",
                        "target": {
                            "reference": "Observation/b9a735ad-77ad-4478-b76c-206269f4d560"
                        }
                    }
                ],
                "extension": [
                    {
                        "url": "http://amida.com/fhir/Profile/extensions#observation-type",
                        "valueCoding": {
                            "code": "11502-2",
                            "display": "Laboratory report",
                            "system": "http://loinc.org"
                        }
                    }
                ],
                "subject": {
                    "reference": "Patient/some-id-here-1987",
                    "display": "DOE, JOE"
                }
            }
        },
        {
            "id": "Observation/e9b301ff-a7b9-4389-961f-53148c40392c",
            "content": {
                "resourceType": "Observation",
                "name": {
                    "coding": [
                        {
                            "system": "http://loinc.org",
                            "code": "18844-1",
                            "display": "EKG impression Narrative"
                        }
                    ],
                    "text": "EKG impression Narrative"
                },
                "valueString": "EKG rate 60s, A fib, LBBB",
                "issued": "2012-11-26",
                "status": "final",
                "reliability": "ok",
                "extension": [
                    {
                        "url": "http://amida.com/fhir/Profile/extensions#observation-type",
                        "valueCoding": {
                            "code": "11502-2",
                            "display": "Laboratory report",
                            "system": "http://loinc.org"
                        }
                    }
                ],
                "subject": {
                    "reference": "Patient/some-id-here-1987",
                    "display": "DOE, JOE"
                }
            }
        },
        {
            "id": "Observation/d1e62342-c5c3-43ae-8dd5-447a3543710e",
            "content": {
                "resourceType": "Observation",
                "name": {
                    "coding": [
                        {
                            "system": "http://loinc.org",
                            "code": "34534-8",
                            "display": "EKG 12 channel panel"
                        }
                    ],
                    "text": "EKG 12 channel panel"
                },
                "status": "final",
                "reliability": "ok",
                "related": [
                    {
                        "type": "has-component",
                        "target": {
                            "reference": "Observation/e9b301ff-a7b9-4389-961f-53148c40392c"
                        }
                    }
                ],
                "extension": [
                    {
                        "url": "http://amida.com/fhir/Profile/extensions#observation-type",
                        "valueCoding": {
                            "code": "11502-2",
                            "display": "Laboratory report",
                            "system": "http://loinc.org"
                        }
                    }
                ],
                "subject": {
                    "reference": "Patient/some-id-here-1987",
                    "display": "DOE, JOE"
                }
            }
        },
        {
            "id": "MedicationPrescription/16aff633-f751-4ec7-9e68-88c97f192021",
            "content": {
                "resourceType": "MedicationPrescription",
                "status": "active",
                "dateWritten": "2012-11-01",
                "dosageInstruction": [
                    {
                        "route": {
                            "coding": [
                                {
                                    "system": "urn:oid:2.16.840.1.113883.3.26.1.1",
                                    "code": "C38288",
                                    "display": "oral"
                                }
                            ],
                            "text": "oral"
                        },
                        "doseQuantity": {
                            "value": 1
                        },
                        "timingSchedule": {
                            "event": [
                                {
                                    "start": "2012-11-01"
                                }
                            ],
                            "repeat": {
                                "frequency": 1,
                                "duration": 24,
                                "units": "h",
                                "end": "2012-12-31"
                            }
                        }
                    }
                ],
                "text": {
                    "status": "generated",
                    "div": "Lisinopril - 20mg by mouth once daily"
                },
                "contained": [
                    {
                        "id": "med",
                        "resourceType": "Medication",
                        "name": "Lisinopril 20 MG Oral Tablet",
                        "code": {
                            "coding": [
                                {
                                    "system": "http://www.nlm.nih.gov/research/umls/rxnorm",
                                    "code": "314077",
                                    "display": "Lisinopril 20 MG Oral Tablet"
                                }
                            ],
                            "text": "Lisinopril 20 MG Oral Tablet"
                        }
                    }
                ],
                "medication": {
                    "reference": "#med",
                    "display": "Lisinopril 20 MG Oral Tablet"
                },
                "patient": {
                    "reference": "Patient/some-id-here-1987",
                    "display": "DOE, JOE"
                }
            }
        },
        {
            "id": "MedicationAdministration/5b2a4445-ad39-475d-994f-09f7d81cd067",
            "content": {
                "resourceType": "MedicationAdministration",
                "status": "completed",
                "practitioner": {
                    "reference": "Practitioner/unknown",
                    "display": "Unknown"
                },
                "whenGiven": {
                    "start": "2012-11-01",
                    "end": "2012-12-31"
                },
                "dosage": [
                    {
                        "route": {
                            "coding": [
                                {
                                    "system": "urn:oid:2.16.840.1.113883.3.26.1.1",
                                    "code": "C38288",
                                    "display": "oral"
                                }
                            ],
                            "text": "oral"
                        },
                        "quantity": {
                            "value": 1
                        },
                        "timingPeriod": {
                            "start": "2012-11-01",
                            "end": "2012-12-31"
                        }
                    }
                ],
                "prescription": {
                    "reference": "MedicationPrescription/16aff633-f751-4ec7-9e68-88c97f192021",
                    "display": "Lisinopril - 20mg by mouth once daily"
                },
                "contained": [
                    {
                        "id": "med",
                        "resourceType": "Medication",
                        "name": "Lisinopril 20 MG Oral Tablet",
                        "code": {
                            "coding": [
                                {
                                    "system": "http://www.nlm.nih.gov/research/umls/rxnorm",
                                    "code": "314077",
                                    "display": "Lisinopril 20 MG Oral Tablet"
                                }
                            ],
                            "text": "Lisinopril 20 MG Oral Tablet"
                        }
                    }
                ],
                "medication": {
                    "reference": "#med",
                    "display": "Lisinopril 20 MG Oral Tablet"
                },
                "patient": {
                    "reference": "Patient/some-id-here-1987",
                    "display": "DOE, JOE"
                }
            }
        },
        {
            "id": "MedicationPrescription/4b7940d3-ecef-4ead-ac34-a5f78963e58b",
            "content": {
                "resourceType": "MedicationPrescription",
                "status": "active",
                "dateWritten": "2012-11-01",
                "dosageInstruction": [
                    {
                        "route": {
                            "coding": [
                                {
                                    "system": "urn:oid:2.16.840.1.113883.3.26.1.1",
                                    "code": "C38288",
                                    "display": "oral"
                                }
                            ],
                            "text": "oral"
                        },
                        "doseQuantity": {
                            "value": 1
                        },
                        "timingSchedule": {
                            "event": [
                                {
                                    "start": "2012-11-01"
                                }
                            ],
                            "repeat": {
                                "frequency": 1,
                                "duration": 24,
                                "units": "h",
                                "end": "2012-12-31"
                            }
                        }
                    }
                ],
                "text": {
                    "status": "generated",
                    "div": "Lasix - 40mg by mouth once daily"
                },
                "contained": [
                    {
                        "id": "med",
                        "resourceType": "Medication",
                        "name": "Furosemide 40 MG Oral Tablet",
                        "code": {
                            "coding": [
                                {
                                    "system": "http://www.nlm.nih.gov/research/umls/rxnorm",
                                    "code": "313988",
                                    "display": "Furosemide 40 MG Oral Tablet"
                                }
                            ],
                            "text": "Furosemide 40 MG Oral Tablet"
                        }
                    }
                ],
                "medication": {
                    "reference": "#med",
                    "display": "Furosemide 40 MG Oral Tablet"
                },
                "patient": {
                    "reference": "Patient/some-id-here-1987",
                    "display": "DOE, JOE"
                }
            }
        },
        {
            "id": "MedicationAdministration/93776892-ba7e-42e2-b2e5-c3eabf77c840",
            "content": {
                "resourceType": "MedicationAdministration",
                "status": "completed",
                "practitioner": {
                    "reference": "Practitioner/unknown",
                    "display": "Unknown"
                },
                "whenGiven": {
                    "start": "2012-11-01",
                    "end": "2012-12-31"
                },
                "dosage": [
                    {
                        "route": {
                            "coding": [
                                {
                                    "system": "urn:oid:2.16.840.1.113883.3.26.1.1",
                                    "code": "C38288",
                                    "display": "oral"
                                }
                            ],
                            "text": "oral"
                        },
                        "quantity": {
                            "value": 1
                        },
                        "timingPeriod": {
                            "start": "2012-11-01",
                            "end": "2012-12-31"
                        }
                    }
                ],
                "prescription": {
                    "reference": "MedicationPrescription/4b7940d3-ecef-4ead-ac34-a5f78963e58b",
                    "display": "Lasix - 40mg by mouth once daily"
                },
                "contained": [
                    {
                        "id": "med",
                        "resourceType": "Medication",
                        "name": "Furosemide 40 MG Oral Tablet",
                        "code": {
                            "coding": [
                                {
                                    "system": "http://www.nlm.nih.gov/research/umls/rxnorm",
                                    "code": "313988",
                                    "display": "Furosemide 40 MG Oral Tablet"
                                }
                            ],
                            "text": "Furosemide 40 MG Oral Tablet"
                        }
                    }
                ],
                "medication": {
                    "reference": "#med",
                    "display": "Furosemide 40 MG Oral Tablet"
                },
                "patient": {
                    "reference": "Patient/some-id-here-1987",
                    "display": "DOE, JOE"
                }
            }
        },
        {
            "id": "MedicationPrescription/70b349a6-7f2e-49ed-8fa7-77ecd6316222",
            "content": {
                "resourceType": "MedicationPrescription",
                "status": "active",
                "dateWritten": "2012-11-01",
                "dosageInstruction": [
                    {
                        "route": {
                            "coding": [
                                {
                                    "system": "urn:oid:2.16.840.1.113883.3.26.1.1",
                                    "code": "C38288",
                                    "display": "oral"
                                }
                            ],
                            "text": "oral"
                        },
                        "doseQuantity": {
                            "value": 1
                        },
                        "timingSchedule": {
                            "event": [
                                {
                                    "start": "2012-11-01"
                                }
                            ],
                            "repeat": {
                                "frequency": 1,
                                "duration": 24,
                                "units": "h",
                                "end": "2012-12-31"
                            }
                        }
                    }
                ],
                "text": {
                    "status": "generated",
                    "div": "K-Dur - 10mEq/L by mouth once daily"
                },
                "contained": [
                    {
                        "id": "med",
                        "resourceType": "Medication",
                        "name": "K-Dur 10 MEQ Extended Release Tablet",
                        "code": {
                            "coding": [
                                {
                                    "system": "http://www.nlm.nih.gov/research/umls/rxnorm",
                                    "code": "706459",
                                    "display": "K-Dur 10 MEQ Extended Release Tablet"
                                }
                            ],
                            "text": "K-Dur 10 MEQ Extended Release Tablet"
                        }
                    }
                ],
                "medication": {
                    "reference": "#med",
                    "display": "K-Dur 10 MEQ Extended Release Tablet"
                },
                "patient": {
                    "reference": "Patient/some-id-here-1987",
                    "display": "DOE, JOE"
                }
            }
        },
        {
            "id": "MedicationAdministration/8a21b400-69e5-435b-bc7a-42b1c53207ca",
            "content": {
                "resourceType": "MedicationAdministration",
                "status": "completed",
                "practitioner": {
                    "reference": "Practitioner/unknown",
                    "display": "Unknown"
                },
                "whenGiven": {
                    "start": "2012-11-01",
                    "end": "2012-12-31"
                },
                "dosage": [
                    {
                        "route": {
                            "coding": [
                                {
                                    "system": "urn:oid:2.16.840.1.113883.3.26.1.1",
                                    "code": "C38288",
                                    "display": "oral"
                                }
                            ],
                            "text": "oral"
                        },
                        "quantity": {
                            "value": 1
                        },
                        "timingPeriod": {
                            "start": "2012-11-01",
                            "end": "2012-12-31"
                        }
                    }
                ],
                "prescription": {
                    "reference": "MedicationPrescription/70b349a6-7f2e-49ed-8fa7-77ecd6316222",
                    "display": "K-Dur - 10mEq/L by mouth once daily"
                },
                "contained": [
                    {
                        "id": "med",
                        "resourceType": "Medication",
                        "name": "K-Dur 10 MEQ Extended Release Tablet",
                        "code": {
                            "coding": [
                                {
                                    "system": "http://www.nlm.nih.gov/research/umls/rxnorm",
                                    "code": "706459",
                                    "display": "K-Dur 10 MEQ Extended Release Tablet"
                                }
                            ],
                            "text": "K-Dur 10 MEQ Extended Release Tablet"
                        }
                    }
                ],
                "medication": {
                    "reference": "#med",
                    "display": "K-Dur 10 MEQ Extended Release Tablet"
                },
                "patient": {
                    "reference": "Patient/some-id-here-1987",
                    "display": "DOE, JOE"
                }
            }
        },
        {
            "id": "MedicationPrescription/a5bc226f-cac1-4df5-9e6a-6210dfedcc18",
            "content": {
                "resourceType": "MedicationPrescription",
                "status": "active",
                "dateWritten": "2012-11-01",
                "dosageInstruction": [
                    {
                        "route": {
                            "coding": [
                                {
                                    "system": "urn:oid:2.16.840.1.113883.3.26.1.1",
                                    "code": "C38288",
                                    "display": "oral"
                                }
                            ],
                            "text": "oral"
                        },
                        "doseQuantity": {
                            "value": 1
                        },
                        "timingSchedule": {
                            "event": [
                                {
                                    "start": "2012-11-01"
                                }
                            ],
                            "repeat": {
                                "frequency": 1,
                                "duration": 24,
                                "units": "h",
                                "end": "2012-12-31"
                            }
                        }
                    }
                ],
                "text": {
                    "status": "generated",
                    "div": "Norvasc - 10mg by mouth once daily"
                },
                "contained": [
                    {
                        "id": "med",
                        "resourceType": "Medication",
                        "name": "Amlodipine 10 MG Oral Tablet",
                        "code": {
                            "coding": [
                                {
                                    "system": "http://www.nlm.nih.gov/research/umls/rxnorm",
                                    "code": "308135",
                                    "display": "Amlodipine 10 MG Oral Tablet"
                                }
                            ],
                            "text": "Amlodipine 10 MG Oral Tablet"
                        }
                    }
                ],
                "medication": {
                    "reference": "#med",
                    "display": "Amlodipine 10 MG Oral Tablet"
                },
                "patient": {
                    "reference": "Patient/some-id-here-1987",
                    "display": "DOE, JOE"
                }
            }
        },
        {
            "id": "MedicationAdministration/6b5ec12b-4b53-4619-a0b3-12d7368b6d22",
            "content": {
                "resourceType": "MedicationAdministration",
                "status": "completed",
                "practitioner": {
                    "reference": "Practitioner/unknown",
                    "display": "Unknown"
                },
                "whenGiven": {
                    "start": "2012-11-01",
                    "end": "2012-12-31"
                },
                "dosage": [
                    {
                        "route": {
                            "coding": [
                                {
                                    "system": "urn:oid:2.16.840.1.113883.3.26.1.1",
                                    "code": "C38288",
                                    "display": "oral"
                                }
                            ],
                            "text": "oral"
                        },
                        "quantity": {
                            "value": 1
                        },
                        "timingPeriod": {
                            "start": "2012-11-01",
                            "end": "2012-12-31"
                        }
                    }
                ],
                "prescription": {
                    "reference": "MedicationPrescription/a5bc226f-cac1-4df5-9e6a-6210dfedcc18",
                    "display": "Norvasc - 10mg by mouth once daily"
                },
                "contained": [
                    {
                        "id": "med",
                        "resourceType": "Medication",
                        "name": "Amlodipine 10 MG Oral Tablet",
                        "code": {
                            "coding": [
                                {
                                    "system": "http://www.nlm.nih.gov/research/umls/rxnorm",
                                    "code": "308135",
                                    "display": "Amlodipine 10 MG Oral Tablet"
                                }
                            ],
                            "text": "Amlodipine 10 MG Oral Tablet"
                        }
                    }
                ],
                "medication": {
                    "reference": "#med",
                    "display": "Amlodipine 10 MG Oral Tablet"
                },
                "patient": {
                    "reference": "Patient/some-id-here-1987",
                    "display": "DOE, JOE"
                }
            }
        },
        {
            "id": "MedicationPrescription/4dc0f58a-d8c6-4955-b896-bf38946f737f",
            "content": {
                "resourceType": "MedicationPrescription",
                "status": "active",
                "dateWritten": "2012-11-01",
                "dosageInstruction": [
                    {
                        "route": {
                            "coding": [
                                {
                                    "system": "urn:oid:2.16.840.1.113883.3.26.1.1",
                                    "code": "C38288",
                                    "display": "oral"
                                }
                            ],
                            "text": "oral"
                        },
                        "doseQuantity": {
                            "value": 1
                        },
                        "timingSchedule": {
                            "event": [
                                {
                                    "start": "2012-11-01"
                                }
                            ],
                            "repeat": {
                                "frequency": 1,
                                "duration": 1,
                                "units": "s",
                                "end": "2012-12-31"
                            }
                        }
                    }
                ],
                "text": {
                    "status": "generated",
                    "div": "Zocor - 40mg by mouth once daily before bed"
                },
                "contained": [
                    {
                        "id": "med",
                        "resourceType": "Medication",
                        "name": "Simvastatin 40 MG Oral Tablet",
                        "code": {
                            "coding": [
                                {
                                    "system": "http://www.nlm.nih.gov/research/umls/rxnorm",
                                    "code": "198211",
                                    "display": "Simvastatin 40 MG Oral Tablet"
                                }
                            ],
                            "text": "Simvastatin 40 MG Oral Tablet"
                        }
                    }
                ],
                "medication": {
                    "reference": "#med",
                    "display": "Simvastatin 40 MG Oral Tablet"
                },
                "patient": {
                    "reference": "Patient/some-id-here-1987",
                    "display": "DOE, JOE"
                }
            }
        },
        {
            "id": "MedicationAdministration/f93d1ea1-bb14-4b27-b73f-9e451b9cf0eb",
            "content": {
                "resourceType": "MedicationAdministration",
                "status": "completed",
                "practitioner": {
                    "reference": "Practitioner/unknown",
                    "display": "Unknown"
                },
                "whenGiven": {
                    "start": "2012-11-01",
                    "end": "2012-12-31"
                },
                "dosage": [
                    {
                        "route": {
                            "coding": [
                                {
                                    "system": "urn:oid:2.16.840.1.113883.3.26.1.1",
                                    "code": "C38288",
                                    "display": "oral"
                                }
                            ],
                            "text": "oral"
                        },
                        "quantity": {
                            "value": 1
                        },
                        "timingPeriod": {
                            "start": "2012-11-01",
                            "end": "2012-12-31"
                        }
                    }
                ],
                "prescription": {
                    "reference": "MedicationPrescription/4dc0f58a-d8c6-4955-b896-bf38946f737f",
                    "display": "Zocor - 40mg by mouth once daily before bed"
                },
                "contained": [
                    {
                        "id": "med",
                        "resourceType": "Medication",
                        "name": "Simvastatin 40 MG Oral Tablet",
                        "code": {
                            "coding": [
                                {
                                    "system": "http://www.nlm.nih.gov/research/umls/rxnorm",
                                    "code": "198211",
                                    "display": "Simvastatin 40 MG Oral Tablet"
                                }
                            ],
                            "text": "Simvastatin 40 MG Oral Tablet"
                        }
                    }
                ],
                "medication": {
                    "reference": "#med",
                    "display": "Simvastatin 40 MG Oral Tablet"
                },
                "patient": {
                    "reference": "Patient/some-id-here-1987",
                    "display": "DOE, JOE"
                }
            }
        },
        {
            "id": "MedicationPrescription/0911a8fc-e046-4c88-8b07-a5e93e4a0793",
            "content": {
                "resourceType": "MedicationPrescription",
                "status": "active",
                "dateWritten": "2012-11-01",
                "dosageInstruction": [
                    {
                        "route": {
                            "coding": [
                                {
                                    "system": "urn:oid:2.16.840.1.113883.3.26.1.1",
                                    "code": "C38299",
                                    "display": "SUBCUTANEOUS"
                                }
                            ],
                            "text": "SUBCUTANEOUS"
                        },
                        "doseQuantity": {
                            "value": 0.36,
                            "units": "ml",
                            "code": "ml",
                            "system": "http://unitsofmeasure.org"
                        },
                        "timingSchedule": {
                            "event": [
                                {
                                    "start": "2012-11-01"
                                }
                            ],
                            "repeat": {
                                "frequency": 1,
                                "duration": 1,
                                "units": "s",
                                "end": "2012-12-31"
                            }
                        }
                    }
                ],
                "text": {
                    "status": "generated",
                    "div": "Lantus - 36 units once daily before bed"
                },
                "contained": [
                    {
                        "id": "med",
                        "resourceType": "Medication",
                        "name": "Insulin Glargine 100 UNT/ML Injectable Solution",
                        "code": {
                            "coding": [
                                {
                                    "system": "http://www.nlm.nih.gov/research/umls/rxnorm",
                                    "code": "311041",
                                    "display": "Insulin Glargine 100 UNT/ML Injectable Solution"
                                }
                            ],
                            "text": "Insulin Glargine 100 UNT/ML Injectable Solution"
                        }
                    }
                ],
                "medication": {
                    "reference": "#med",
                    "display": "Insulin Glargine 100 UNT/ML Injectable Solution"
                },
                "patient": {
                    "reference": "Patient/some-id-here-1987",
                    "display": "DOE, JOE"
                }
            }
        },
        {
            "id": "MedicationAdministration/4167fb9f-aadb-456e-9357-8a7e9afe5f0b",
            "content": {
                "resourceType": "MedicationAdministration",
                "status": "completed",
                "practitioner": {
                    "reference": "Practitioner/unknown",
                    "display": "Unknown"
                },
                "whenGiven": {
                    "start": "2012-11-01",
                    "end": "2012-12-31"
                },
                "dosage": [
                    {
                        "route": {
                            "coding": [
                                {
                                    "system": "urn:oid:2.16.840.1.113883.3.26.1.1",
                                    "code": "C38299",
                                    "display": "SUBCUTANEOUS"
                                }
                            ],
                            "text": "SUBCUTANEOUS"
                        },
                        "quantity": {
                            "value": 0.36,
                            "units": "ml",
                            "code": "ml",
                            "system": "http://unitsofmeasure.org"
                        },
                        "timingPeriod": {
                            "start": "2012-11-01",
                            "end": "2012-12-31"
                        }
                    }
                ],
                "prescription": {
                    "reference": "MedicationPrescription/0911a8fc-e046-4c88-8b07-a5e93e4a0793",
                    "display": "Lantus - 36 units once daily before bed"
                },
                "contained": [
                    {
                        "id": "med",
                        "resourceType": "Medication",
                        "name": "Insulin Glargine 100 UNT/ML Injectable Solution",
                        "code": {
                            "coding": [
                                {
                                    "system": "http://www.nlm.nih.gov/research/umls/rxnorm",
                                    "code": "311041",
                                    "display": "Insulin Glargine 100 UNT/ML Injectable Solution"
                                }
                            ],
                            "text": "Insulin Glargine 100 UNT/ML Injectable Solution"
                        }
                    }
                ],
                "medication": {
                    "reference": "#med",
                    "display": "Insulin Glargine 100 UNT/ML Injectable Solution"
                },
                "patient": {
                    "reference": "Patient/some-id-here-1987",
                    "display": "DOE, JOE"
                }
            }
        },
        {
            "id": "MedicationPrescription/d9b7a071-7015-4d72-8b4e-bfa44f3bb5e1",
            "content": {
                "resourceType": "MedicationPrescription",
                "status": "active",
                "dateWritten": "2012-11-01",
                "dosageInstruction": [
                    {
                        "route": {
                            "coding": [
                                {
                                    "system": "urn:oid:2.16.840.1.113883.3.26.1.1",
                                    "code": "C38288",
                                    "display": "oral"
                                }
                            ],
                            "text": "oral"
                        },
                        "doseQuantity": {
                            "value": 1
                        },
                        "timingSchedule": {
                            "event": [
                                {
                                    "start": "2012-11-01"
                                }
                            ],
                            "repeat": {
                                "frequency": 1,
                                "duration": 24,
                                "units": "h",
                                "end": "2012-12-31"
                            }
                        }
                    }
                ],
                "text": {
                    "status": "generated",
                    "div": "gliburide - 2.5mg by mouth once daily"
                },
                "contained": [
                    {
                        "id": "med",
                        "resourceType": "Medication",
                        "name": "glyBURIDE 2.5 MG / metFORMIN hydrochloride 500 MG Oral Tablet",
                        "code": {
                            "coding": [
                                {
                                    "system": "http://www.nlm.nih.gov/research/umls/rxnorm",
                                    "code": "861748",
                                    "display": "glyBURIDE 2.5 MG / metFORMIN hydrochloride 500 MG Oral Tablet"
                                }
                            ],
                            "text": "glyBURIDE 2.5 MG / metFORMIN hydrochloride 500 MG Oral Tablet"
                        }
                    }
                ],
                "medication": {
                    "reference": "#med",
                    "display": "glyBURIDE 2.5 MG / metFORMIN hydrochloride 500 MG Oral Tablet"
                },
                "patient": {
                    "reference": "Patient/some-id-here-1987",
                    "display": "DOE, JOE"
                }
            }
        },
        {
            "id": "MedicationAdministration/47e72ff7-e5a9-4aa2-9515-4f193f8dcafa",
            "content": {
                "resourceType": "MedicationAdministration",
                "status": "completed",
                "practitioner": {
                    "reference": "Practitioner/unknown",
                    "display": "Unknown"
                },
                "whenGiven": {
                    "start": "2012-11-01",
                    "end": "2012-12-31"
                },
                "dosage": [
                    {
                        "route": {
                            "coding": [
                                {
                                    "system": "urn:oid:2.16.840.1.113883.3.26.1.1",
                                    "code": "C38288",
                                    "display": "oral"
                                }
                            ],
                            "text": "oral"
                        },
                        "quantity": {
                            "value": 1
                        },
                        "timingPeriod": {
                            "start": "2012-11-01",
                            "end": "2012-12-31"
                        }
                    }
                ],
                "prescription": {
                    "reference": "MedicationPrescription/d9b7a071-7015-4d72-8b4e-bfa44f3bb5e1",
                    "display": "gliburide - 2.5mg by mouth once daily"
                },
                "contained": [
                    {
                        "id": "med",
                        "resourceType": "Medication",
                        "name": "glyBURIDE 2.5 MG / metFORMIN hydrochloride 500 MG Oral Tablet",
                        "code": {
                            "coding": [
                                {
                                    "system": "http://www.nlm.nih.gov/research/umls/rxnorm",
                                    "code": "861748",
                                    "display": "glyBURIDE 2.5 MG / metFORMIN hydrochloride 500 MG Oral Tablet"
                                }
                            ],
                            "text": "glyBURIDE 2.5 MG / metFORMIN hydrochloride 500 MG Oral Tablet"
                        }
                    }
                ],
                "medication": {
                    "reference": "#med",
                    "display": "glyBURIDE 2.5 MG / metFORMIN hydrochloride 500 MG Oral Tablet"
                },
                "patient": {
                    "reference": "Patient/some-id-here-1987",
                    "display": "DOE, JOE"
                }
            }
        },
        {
            "id": "MedicationPrescription/be200095-6310-4ea7-ad1f-8f02028f0a53",
            "content": {
                "resourceType": "MedicationPrescription",
                "status": "active",
                "dateWritten": "2012-11-01",
                "dosageInstruction": [
                    {
                        "route": {
                            "coding": [
                                {
                                    "system": "urn:oid:2.16.840.1.113883.3.26.1.1",
                                    "code": "C38288",
                                    "display": "oral"
                                }
                            ],
                            "text": "oral"
                        },
                        "doseQuantity": {
                            "value": 1
                        },
                        "timingSchedule": {
                            "event": [
                                {
                                    "start": "2012-11-01"
                                }
                            ],
                            "repeat": {
                                "frequency": 1,
                                "duration": 24,
                                "units": "h",
                                "end": "2012-12-31"
                            }
                        }
                    }
                ],
                "text": {
                    "status": "generated",
                    "div": "synthroid - 0.1mg by mouth once daily"
                },
                "contained": [
                    {
                        "id": "med",
                        "resourceType": "Medication",
                        "name": "Levothyroxine Sodium 0.1 MG Oral Tablet",
                        "code": {
                            "coding": [
                                {
                                    "system": "http://www.nlm.nih.gov/research/umls/rxnorm",
                                    "code": "892246",
                                    "display": "Levothyroxine Sodium 0.1 MG Oral Tablet"
                                }
                            ],
                            "text": "Levothyroxine Sodium 0.1 MG Oral Tablet"
                        }
                    }
                ],
                "medication": {
                    "reference": "#med",
                    "display": "Levothyroxine Sodium 0.1 MG Oral Tablet"
                },
                "patient": {
                    "reference": "Patient/some-id-here-1987",
                    "display": "DOE, JOE"
                }
            }
        },
        {
            "id": "MedicationAdministration/86d7b8da-f1db-4074-925b-e372b450d4ce",
            "content": {
                "resourceType": "MedicationAdministration",
                "status": "completed",
                "practitioner": {
                    "reference": "Practitioner/unknown",
                    "display": "Unknown"
                },
                "whenGiven": {
                    "start": "2012-11-01",
                    "end": "2012-12-31"
                },
                "dosage": [
                    {
                        "route": {
                            "coding": [
                                {
                                    "system": "urn:oid:2.16.840.1.113883.3.26.1.1",
                                    "code": "C38288",
                                    "display": "oral"
                                }
                            ],
                            "text": "oral"
                        },
                        "quantity": {
                            "value": 1
                        },
                        "timingPeriod": {
                            "start": "2012-11-01",
                            "end": "2012-12-31"
                        }
                    }
                ],
                "prescription": {
                    "reference": "MedicationPrescription/be200095-6310-4ea7-ad1f-8f02028f0a53",
                    "display": "synthroid - 0.1mg by mouth once daily"
                },
                "contained": [
                    {
                        "id": "med",
                        "resourceType": "Medication",
                        "name": "Levothyroxine Sodium 0.1 MG Oral Tablet",
                        "code": {
                            "coding": [
                                {
                                    "system": "http://www.nlm.nih.gov/research/umls/rxnorm",
                                    "code": "892246",
                                    "display": "Levothyroxine Sodium 0.1 MG Oral Tablet"
                                }
                            ],
                            "text": "Levothyroxine Sodium 0.1 MG Oral Tablet"
                        }
                    }
                ],
                "medication": {
                    "reference": "#med",
                    "display": "Levothyroxine Sodium 0.1 MG Oral Tablet"
                },
                "patient": {
                    "reference": "Patient/some-id-here-1987",
                    "display": "DOE, JOE"
                }
            }
        },
        {
            "id": "MedicationPrescription/7ff65d26-18f1-4c15-a4ed-be08845a0208",
            "content": {
                "resourceType": "MedicationPrescription",
                "status": "active",
                "dateWritten": "2012-11-01",
                "dosageInstruction": [
                    {
                        "route": {
                            "coding": [
                                {
                                    "system": "urn:oid:2.16.840.1.113883.3.26.1.1",
                                    "code": "C38288",
                                    "display": "oral"
                                }
                            ],
                            "text": "oral"
                        },
                        "doseQuantity": {
                            "value": 1
                        },
                        "timingSchedule": {
                            "event": [
                                {
                                    "start": "2012-11-01"
                                }
                            ],
                            "repeat": {
                                "frequency": 1,
                                "duration": 12,
                                "units": "h",
                                "end": "2012-12-31"
                            }
                        }
                    }
                ],
                "text": {
                    "status": "generated",
                    "div": "Aleve - 220mg by mouth twice daily"
                },
                "contained": [
                    {
                        "id": "med",
                        "resourceType": "Medication",
                        "name": "Naproxen sodium 220 MG Oral Capsule",
                        "code": {
                            "coding": [
                                {
                                    "system": "http://www.nlm.nih.gov/research/umls/rxnorm",
                                    "code": "1112231",
                                    "display": "Naproxen sodium 220 MG Oral Capsule"
                                }
                            ],
                            "text": "Naproxen sodium 220 MG Oral Capsule"
                        }
                    }
                ],
                "medication": {
                    "reference": "#med",
                    "display": "Naproxen sodium 220 MG Oral Capsule"
                },
                "patient": {
                    "reference": "Patient/some-id-here-1987",
                    "display": "DOE, JOE"
                }
            }
        },
        {
            "id": "MedicationAdministration/a352799b-085a-4fcd-8b37-d07526a9c01d",
            "content": {
                "resourceType": "MedicationAdministration",
                "status": "completed",
                "practitioner": {
                    "reference": "Practitioner/unknown",
                    "display": "Unknown"
                },
                "whenGiven": {
                    "start": "2012-11-01",
                    "end": "2012-12-31"
                },
                "dosage": [
                    {
                        "route": {
                            "coding": [
                                {
                                    "system": "urn:oid:2.16.840.1.113883.3.26.1.1",
                                    "code": "C38288",
                                    "display": "oral"
                                }
                            ],
                            "text": "oral"
                        },
                        "quantity": {
                            "value": 1
                        },
                        "timingPeriod": {
                            "start": "2012-11-01",
                            "end": "2012-12-31"
                        }
                    }
                ],
                "prescription": {
                    "reference": "MedicationPrescription/7ff65d26-18f1-4c15-a4ed-be08845a0208",
                    "display": "Aleve - 220mg by mouth twice daily"
                },
                "contained": [
                    {
                        "id": "med",
                        "resourceType": "Medication",
                        "name": "Naproxen sodium 220 MG Oral Capsule",
                        "code": {
                            "coding": [
                                {
                                    "system": "http://www.nlm.nih.gov/research/umls/rxnorm",
                                    "code": "1112231",
                                    "display": "Naproxen sodium 220 MG Oral Capsule"
                                }
                            ],
                            "text": "Naproxen sodium 220 MG Oral Capsule"
                        }
                    }
                ],
                "medication": {
                    "reference": "#med",
                    "display": "Naproxen sodium 220 MG Oral Capsule"
                },
                "patient": {
                    "reference": "Patient/some-id-here-1987",
                    "display": "DOE, JOE"
                }
            }
        },
        {
            "id": "MedicationPrescription/6b9ad12d-d78f-4b74-b062-9afeb932dc11",
            "content": {
                "resourceType": "MedicationPrescription",
                "status": "active",
                "dateWritten": "2012-11-01",
                "dosageInstruction": [
                    {
                        "route": {
                            "coding": [
                                {
                                    "system": "urn:oid:2.16.840.1.113883.3.26.1.1",
                                    "code": "C38288",
                                    "display": "oral"
                                }
                            ],
                            "text": "oral"
                        },
                        "doseQuantity": {
                            "value": 1
                        },
                        "timingSchedule": {
                            "event": [
                                {
                                    "start": "2012-11-01"
                                }
                            ],
                            "repeat": {
                                "frequency": 1,
                                "duration": 6,
                                "units": "h",
                                "end": "2012-12-31"
                            }
                        }
                    }
                ],
                "text": {
                    "status": "generated",
                    "div": "Ultram - 50mg by mouth four times daily as needed for joint pain"
                },
                "contained": [
                    {
                        "id": "med",
                        "resourceType": "Medication",
                        "name": "traMADol hydrochloride 50 MG Oral Tablet",
                        "code": {
                            "coding": [
                                {
                                    "system": "http://www.nlm.nih.gov/research/umls/rxnorm",
                                    "code": "835603",
                                    "display": "traMADol hydrochloride 50 MG Oral Tablet"
                                }
                            ],
                            "text": "traMADol hydrochloride 50 MG Oral Tablet"
                        }
                    }
                ],
                "medication": {
                    "reference": "#med",
                    "display": "traMADol hydrochloride 50 MG Oral Tablet"
                },
                "patient": {
                    "reference": "Patient/some-id-here-1987",
                    "display": "DOE, JOE"
                }
            }
        },
        {
            "id": "MedicationAdministration/bed9c31d-7677-466f-a0f6-591969125833",
            "content": {
                "resourceType": "MedicationAdministration",
                "status": "completed",
                "practitioner": {
                    "reference": "Practitioner/unknown",
                    "display": "Unknown"
                },
                "whenGiven": {
                    "start": "2012-11-01",
                    "end": "2012-12-31"
                },
                "dosage": [
                    {
                        "route": {
                            "coding": [
                                {
                                    "system": "urn:oid:2.16.840.1.113883.3.26.1.1",
                                    "code": "C38288",
                                    "display": "oral"
                                }
                            ],
                            "text": "oral"
                        },
                        "quantity": {
                            "value": 1
                        },
                        "timingPeriod": {
                            "start": "2012-11-01",
                            "end": "2012-12-31"
                        }
                    }
                ],
                "prescription": {
                    "reference": "MedicationPrescription/6b9ad12d-d78f-4b74-b062-9afeb932dc11",
                    "display": "Ultram - 50mg by mouth four times daily as needed for joint pain"
                },
                "contained": [
                    {
                        "id": "med",
                        "resourceType": "Medication",
                        "name": "traMADol hydrochloride 50 MG Oral Tablet",
                        "code": {
                            "coding": [
                                {
                                    "system": "http://www.nlm.nih.gov/research/umls/rxnorm",
                                    "code": "835603",
                                    "display": "traMADol hydrochloride 50 MG Oral Tablet"
                                }
                            ],
                            "text": "traMADol hydrochloride 50 MG Oral Tablet"
                        }
                    }
                ],
                "medication": {
                    "reference": "#med",
                    "display": "traMADol hydrochloride 50 MG Oral Tablet"
                },
                "patient": {
                    "reference": "Patient/some-id-here-1987",
                    "display": "DOE, JOE"
                }
            }
        },
        {
            "id": "MedicationPrescription/b43fc5a5-b5eb-497f-bb4d-07611b505186",
            "content": {
                "resourceType": "MedicationPrescription",
                "status": "active",
                "dateWritten": "2012-11-01",
                "dosageInstruction": [
                    {
                        "route": {
                            "coding": [
                                {
                                    "system": "urn:oid:2.16.840.1.113883.3.26.1.1",
                                    "code": "C38288",
                                    "display": "oral"
                                }
                            ],
                            "text": "oral"
                        },
                        "doseQuantity": {
                            "value": 1
                        },
                        "timingSchedule": {
                            "event": [
                                {
                                    "start": "2012-11-01"
                                }
                            ],
                            "repeat": {
                                "frequency": 1,
                                "duration": 24,
                                "units": "h",
                                "end": "2012-12-31"
                            }
                        }
                    }
                ],
                "text": {
                    "status": "generated",
                    "div": "Aspirin - 81mg by mouth once daily"
                },
                "contained": [
                    {
                        "id": "med",
                        "resourceType": "Medication",
                        "name": "Aspirin 81 MG Enteric Coated Tablet",
                        "code": {
                            "coding": [
                                {
                                    "system": "http://www.nlm.nih.gov/research/umls/rxnorm",
                                    "code": "308416",
                                    "display": "Aspirin 81 MG Enteric Coated Tablet"
                                }
                            ],
                            "text": "Aspirin 81 MG Enteric Coated Tablet"
                        }
                    }
                ],
                "medication": {
                    "reference": "#med",
                    "display": "Aspirin 81 MG Enteric Coated Tablet"
                },
                "patient": {
                    "reference": "Patient/some-id-here-1987",
                    "display": "DOE, JOE"
                }
            }
        },
        {
            "id": "MedicationAdministration/3fe7008d-6227-4841-b0c1-28e9272d38ec",
            "content": {
                "resourceType": "MedicationAdministration",
                "status": "completed",
                "practitioner": {
                    "reference": "Practitioner/unknown",
                    "display": "Unknown"
                },
                "whenGiven": {
                    "start": "2012-11-01",
                    "end": "2012-12-31"
                },
                "dosage": [
                    {
                        "route": {
                            "coding": [
                                {
                                    "system": "urn:oid:2.16.840.1.113883.3.26.1.1",
                                    "code": "C38288",
                                    "display": "oral"
                                }
                            ],
                            "text": "oral"
                        },
                        "quantity": {
                            "value": 1
                        },
                        "timingPeriod": {
                            "start": "2012-11-01",
                            "end": "2012-12-31"
                        }
                    }
                ],
                "prescription": {
                    "reference": "MedicationPrescription/b43fc5a5-b5eb-497f-bb4d-07611b505186",
                    "display": "Aspirin - 81mg by mouth once daily"
                },
                "contained": [
                    {
                        "id": "med",
                        "resourceType": "Medication",
                        "name": "Aspirin 81 MG Enteric Coated Tablet",
                        "code": {
                            "coding": [
                                {
                                    "system": "http://www.nlm.nih.gov/research/umls/rxnorm",
                                    "code": "308416",
                                    "display": "Aspirin 81 MG Enteric Coated Tablet"
                                }
                            ],
                            "text": "Aspirin 81 MG Enteric Coated Tablet"
                        }
                    }
                ],
                "medication": {
                    "reference": "#med",
                    "display": "Aspirin 81 MG Enteric Coated Tablet"
                },
                "patient": {
                    "reference": "Patient/some-id-here-1987",
                    "display": "DOE, JOE"
                }
            }
        },
        {
            "id": "MedicationPrescription/5b3cc038-6b3b-4e96-bd9d-49c3d81bf49b",
            "content": {
                "resourceType": "MedicationPrescription",
                "status": "active",
                "dateWritten": "2012-11-01",
                "dosageInstruction": [
                    {
                        "route": {
                            "coding": [
                                {
                                    "system": "urn:oid:2.16.840.1.113883.3.26.1.1",
                                    "code": "C38288",
                                    "display": "oral"
                                }
                            ],
                            "text": "oral"
                        },
                        "doseQuantity": {
                            "value": 1
                        },
                        "timingSchedule": {
                            "event": [
                                {
                                    "start": "2012-11-01"
                                }
                            ],
                            "repeat": {
                                "frequency": 1,
                                "duration": 12,
                                "units": "h",
                                "end": "2012-12-31"
                            }
                        }
                    }
                ],
                "text": {
                    "status": "generated",
                    "div": "Lopressor - 50mg by mouth twice daily"
                },
                "contained": [
                    {
                        "id": "med",
                        "resourceType": "Medication",
                        "name": "Metoprolol Tartrate 50 MG Oral Tablet",
                        "code": {
                            "coding": [
                                {
                                    "system": "http://www.nlm.nih.gov/research/umls/rxnorm",
                                    "code": "866514",
                                    "display": "Metoprolol Tartrate 50 MG Oral Tablet"
                                }
                            ],
                            "text": "Metoprolol Tartrate 50 MG Oral Tablet"
                        }
                    }
                ],
                "medication": {
                    "reference": "#med",
                    "display": "Metoprolol Tartrate 50 MG Oral Tablet"
                },
                "patient": {
                    "reference": "Patient/some-id-here-1987",
                    "display": "DOE, JOE"
                }
            }
        },
        {
            "id": "MedicationAdministration/6938cdf4-0465-450e-b6ce-84d17c2bd7e9",
            "content": {
                "resourceType": "MedicationAdministration",
                "status": "completed",
                "practitioner": {
                    "reference": "Practitioner/unknown",
                    "display": "Unknown"
                },
                "whenGiven": {
                    "start": "2012-11-01",
                    "end": "2012-12-31"
                },
                "dosage": [
                    {
                        "route": {
                            "coding": [
                                {
                                    "system": "urn:oid:2.16.840.1.113883.3.26.1.1",
                                    "code": "C38288",
                                    "display": "oral"
                                }
                            ],
                            "text": "oral"
                        },
                        "quantity": {
                            "value": 1
                        },
                        "timingPeriod": {
                            "start": "2012-11-01",
                            "end": "2012-12-31"
                        }
                    }
                ],
                "prescription": {
                    "reference": "MedicationPrescription/5b3cc038-6b3b-4e96-bd9d-49c3d81bf49b",
                    "display": "Lopressor - 50mg by mouth twice daily"
                },
                "contained": [
                    {
                        "id": "med",
                        "resourceType": "Medication",
                        "name": "Metoprolol Tartrate 50 MG Oral Tablet",
                        "code": {
                            "coding": [
                                {
                                    "system": "http://www.nlm.nih.gov/research/umls/rxnorm",
                                    "code": "866514",
                                    "display": "Metoprolol Tartrate 50 MG Oral Tablet"
                                }
                            ],
                            "text": "Metoprolol Tartrate 50 MG Oral Tablet"
                        }
                    }
                ],
                "medication": {
                    "reference": "#med",
                    "display": "Metoprolol Tartrate 50 MG Oral Tablet"
                },
                "patient": {
                    "reference": "Patient/some-id-here-1987",
                    "display": "DOE, JOE"
                }
            }
        },
        {
            "id": "MedicationPrescription/77c3ca5a-c19a-49bf-92d3-8393b95b2af5",
            "content": {
                "resourceType": "MedicationPrescription",
                "status": "active",
                "dateWritten": "2012-11-01",
                "dosageInstruction": [
                    {
                        "route": {
                            "coding": [
                                {
                                    "system": "urn:oid:2.16.840.1.113883.3.26.1.1",
                                    "code": "C38288",
                                    "display": "oral"
                                }
                            ],
                            "text": "oral"
                        },
                        "doseQuantity": {
                            "value": 1
                        },
                        "timingSchedule": {
                            "event": [
                                {
                                    "start": "2012-11-01"
                                }
                            ],
                            "repeat": {
                                "frequency": 1,
                                "duration": 24,
                                "units": "h",
                                "end": "2012-12-31"
                            }
                        }
                    }
                ],
                "text": {
                    "status": "generated",
                    "div": "Flomax - 0.4mg by mouth once daily"
                },
                "contained": [
                    {
                        "id": "med",
                        "resourceType": "Medication",
                        "name": "Flomax 0.4 MG Oral Capsule",
                        "code": {
                            "coding": [
                                {
                                    "system": "http://www.nlm.nih.gov/research/umls/rxnorm",
                                    "code": "863671",
                                    "display": "Flomax 0.4 MG Oral Capsule"
                                }
                            ],
                            "text": "Flomax 0.4 MG Oral Capsule"
                        }
                    }
                ],
                "medication": {
                    "reference": "#med",
                    "display": "Flomax 0.4 MG Oral Capsule"
                },
                "patient": {
                    "reference": "Patient/some-id-here-1987",
                    "display": "DOE, JOE"
                }
            }
        },
        {
            "id": "MedicationAdministration/c95518c0-b55a-499e-96fc-170dd7224d4d",
            "content": {
                "resourceType": "MedicationAdministration",
                "status": "completed",
                "practitioner": {
                    "reference": "Practitioner/unknown",
                    "display": "Unknown"
                },
                "whenGiven": {
                    "start": "2012-11-01",
                    "end": "2012-12-31"
                },
                "dosage": [
                    {
                        "route": {
                            "coding": [
                                {
                                    "system": "urn:oid:2.16.840.1.113883.3.26.1.1",
                                    "code": "C38288",
                                    "display": "oral"
                                }
                            ],
                            "text": "oral"
                        },
                        "quantity": {
                            "value": 1
                        },
                        "timingPeriod": {
                            "start": "2012-11-01",
                            "end": "2012-12-31"
                        }
                    }
                ],
                "prescription": {
                    "reference": "MedicationPrescription/77c3ca5a-c19a-49bf-92d3-8393b95b2af5",
                    "display": "Flomax - 0.4mg by mouth once daily"
                },
                "contained": [
                    {
                        "id": "med",
                        "resourceType": "Medication",
                        "name": "Flomax 0.4 MG Oral Capsule",
                        "code": {
                            "coding": [
                                {
                                    "system": "http://www.nlm.nih.gov/research/umls/rxnorm",
                                    "code": "863671",
                                    "display": "Flomax 0.4 MG Oral Capsule"
                                }
                            ],
                            "text": "Flomax 0.4 MG Oral Capsule"
                        }
                    }
                ],
                "medication": {
                    "reference": "#med",
                    "display": "Flomax 0.4 MG Oral Capsule"
                },
                "patient": {
                    "reference": "Patient/some-id-here-1987",
                    "display": "DOE, JOE"
                }
            }
        },
        {
            "id": "MedicationPrescription/556459c4-8a39-4af2-a77a-362c03b172c8",
            "content": {
                "resourceType": "MedicationPrescription",
                "status": "active",
                "dateWritten": "2012-11-01",
                "dosageInstruction": [
                    {
                        "route": {
                            "coding": [
                                {
                                    "system": "urn:oid:2.16.840.1.113883.3.26.1.1",
                                    "code": "C38288",
                                    "display": "oral"
                                }
                            ],
                            "text": "oral"
                        },
                        "doseQuantity": {
                            "value": 1
                        },
                        "timingSchedule": {
                            "event": [
                                {
                                    "start": "2012-11-01"
                                }
                            ],
                            "repeat": {
                                "frequency": 1,
                                "duration": 24,
                                "units": "h",
                                "end": "2012-12-31"
                            }
                        }
                    }
                ],
                "text": {
                    "status": "generated",
                    "div": "Proscar - 5mg by mouth once daily"
                },
                "contained": [
                    {
                        "id": "med",
                        "resourceType": "Medication",
                        "name": "Proscar 5 MG Oral Tablet",
                        "code": {
                            "coding": [
                                {
                                    "system": "http://www.nlm.nih.gov/research/umls/rxnorm",
                                    "code": "201961",
                                    "display": "Proscar 5 MG Oral Tablet"
                                }
                            ],
                            "text": "Proscar 5 MG Oral Tablet"
                        }
                    }
                ],
                "medication": {
                    "reference": "#med",
                    "display": "Proscar 5 MG Oral Tablet"
                },
                "patient": {
                    "reference": "Patient/some-id-here-1987",
                    "display": "DOE, JOE"
                }
            }
        },
        {
            "id": "MedicationAdministration/999b3246-2560-4061-be8e-532844c61fc7",
            "content": {
                "resourceType": "MedicationAdministration",
                "status": "completed",
                "practitioner": {
                    "reference": "Practitioner/unknown",
                    "display": "Unknown"
                },
                "whenGiven": {
                    "start": "2012-11-01",
                    "end": "2012-12-31"
                },
                "dosage": [
                    {
                        "route": {
                            "coding": [
                                {
                                    "system": "urn:oid:2.16.840.1.113883.3.26.1.1",
                                    "code": "C38288",
                                    "display": "oral"
                                }
                            ],
                            "text": "oral"
                        },
                        "quantity": {
                            "value": 1
                        },
                        "timingPeriod": {
                            "start": "2012-11-01",
                            "end": "2012-12-31"
                        }
                    }
                ],
                "prescription": {
                    "reference": "MedicationPrescription/556459c4-8a39-4af2-a77a-362c03b172c8",
                    "display": "Proscar - 5mg by mouth once daily"
                },
                "contained": [
                    {
                        "id": "med",
                        "resourceType": "Medication",
                        "name": "Proscar 5 MG Oral Tablet",
                        "code": {
                            "coding": [
                                {
                                    "system": "http://www.nlm.nih.gov/research/umls/rxnorm",
                                    "code": "201961",
                                    "display": "Proscar 5 MG Oral Tablet"
                                }
                            ],
                            "text": "Proscar 5 MG Oral Tablet"
                        }
                    }
                ],
                "medication": {
                    "reference": "#med",
                    "display": "Proscar 5 MG Oral Tablet"
                },
                "patient": {
                    "reference": "Patient/some-id-here-1987",
                    "display": "DOE, JOE"
                }
            }
        },
        {
            "id": "MedicationPrescription/1ac7fe67-8baa-4c96-84a7-c1acd8a018a6",
            "content": {
                "resourceType": "MedicationPrescription",
                "status": "active",
                "dateWritten": "2012-11-01",
                "dosageInstruction": [
                    {
                        "route": {
                            "coding": [
                                {
                                    "system": "urn:oid:2.16.840.1.113883.3.26.1.1",
                                    "code": "C38288",
                                    "display": "oral"
                                }
                            ],
                            "text": "oral"
                        },
                        "doseQuantity": {
                            "value": 1
                        },
                        "timingSchedule": {
                            "event": [
                                {
                                    "start": "2012-11-01"
                                }
                            ],
                            "repeat": {
                                "frequency": 1,
                                "duration": 8,
                                "units": "h",
                                "end": "2012-12-31"
                            }
                        }
                    }
                ],
                "text": {
                    "status": "generated",
                    "div": "Neurontin - 300mg by mouth three times daily"
                },
                "contained": [
                    {
                        "id": "med",
                        "resourceType": "Medication",
                        "name": "Neurontin 300 MG Oral Capsule",
                        "code": {
                            "coding": [
                                {
                                    "system": "http://www.nlm.nih.gov/research/umls/rxnorm",
                                    "code": "105029",
                                    "display": "Neurontin 300 MG Oral Capsule"
                                }
                            ],
                            "text": "Neurontin 300 MG Oral Capsule"
                        }
                    }
                ],
                "medication": {
                    "reference": "#med",
                    "display": "Neurontin 300 MG Oral Capsule"
                },
                "patient": {
                    "reference": "Patient/some-id-here-1987",
                    "display": "DOE, JOE"
                }
            }
        },
        {
            "id": "MedicationAdministration/54b62754-5ac6-45f0-8421-4b302e653d98",
            "content": {
                "resourceType": "MedicationAdministration",
                "status": "completed",
                "practitioner": {
                    "reference": "Practitioner/unknown",
                    "display": "Unknown"
                },
                "whenGiven": {
                    "start": "2012-11-01",
                    "end": "2012-12-31"
                },
                "dosage": [
                    {
                        "route": {
                            "coding": [
                                {
                                    "system": "urn:oid:2.16.840.1.113883.3.26.1.1",
                                    "code": "C38288",
                                    "display": "oral"
                                }
                            ],
                            "text": "oral"
                        },
                        "quantity": {
                            "value": 1
                        },
                        "timingPeriod": {
                            "start": "2012-11-01",
                            "end": "2012-12-31"
                        }
                    }
                ],
                "prescription": {
                    "reference": "MedicationPrescription/1ac7fe67-8baa-4c96-84a7-c1acd8a018a6",
                    "display": "Neurontin - 300mg by mouth three times daily"
                },
                "contained": [
                    {
                        "id": "med",
                        "resourceType": "Medication",
                        "name": "Neurontin 300 MG Oral Capsule",
                        "code": {
                            "coding": [
                                {
                                    "system": "http://www.nlm.nih.gov/research/umls/rxnorm",
                                    "code": "105029",
                                    "display": "Neurontin 300 MG Oral Capsule"
                                }
                            ],
                            "text": "Neurontin 300 MG Oral Capsule"
                        }
                    }
                ],
                "medication": {
                    "reference": "#med",
                    "display": "Neurontin 300 MG Oral Capsule"
                },
                "patient": {
                    "reference": "Patient/some-id-here-1987",
                    "display": "DOE, JOE"
                }
            }
        },
        {
            "id": "MedicationPrescription/c3cbf741-81ee-49bb-9a55-bcf6daf8efdf",
            "content": {
                "resourceType": "MedicationPrescription",
                "status": "active",
                "dateWritten": "2012-11-01",
                "dosageInstruction": [
                    {
                        "route": {
                            "coding": [
                                {
                                    "system": "urn:oid:2.16.840.1.113883.3.26.1.1",
                                    "code": "C38288",
                                    "display": "oral"
                                }
                            ],
                            "text": "oral"
                        },
                        "doseQuantity": {
                            "value": 1
                        },
                        "timingSchedule": {
                            "event": [
                                {
                                    "start": "2012-11-01"
                                }
                            ],
                            "repeat": {
                                "frequency": 1,
                                "duration": 8,
                                "units": "h",
                                "end": "2012-12-31"
                            }
                        }
                    }
                ],
                "text": {
                    "status": "generated",
                    "div": "Ativan - 1mg by mouth three times daily as needed for irritability"
                },
                "contained": [
                    {
                        "id": "med",
                        "resourceType": "Medication",
                        "name": "Lorazepam 0.5 MG Oral Tablet",
                        "code": {
                            "coding": [
                                {
                                    "system": "http://www.nlm.nih.gov/research/umls/rxnorm",
                                    "code": "197900",
                                    "display": "Lorazepam 0.5 MG Oral Tablet"
                                }
                            ],
                            "text": "Lorazepam 0.5 MG Oral Tablet"
                        }
                    }
                ],
                "medication": {
                    "reference": "#med",
                    "display": "Lorazepam 0.5 MG Oral Tablet"
                },
                "patient": {
                    "reference": "Patient/some-id-here-1987",
                    "display": "DOE, JOE"
                }
            }
        },
        {
            "id": "MedicationAdministration/92c2650f-852e-4e29-9a0a-c9e11ce73de5",
            "content": {
                "resourceType": "MedicationAdministration",
                "status": "completed",
                "practitioner": {
                    "reference": "Practitioner/unknown",
                    "display": "Unknown"
                },
                "whenGiven": {
                    "start": "2012-11-01",
                    "end": "2012-12-31"
                },
                "dosage": [
                    {
                        "route": {
                            "coding": [
                                {
                                    "system": "urn:oid:2.16.840.1.113883.3.26.1.1",
                                    "code": "C38288",
                                    "display": "oral"
                                }
                            ],
                            "text": "oral"
                        },
                        "quantity": {
                            "value": 1
                        },
                        "timingPeriod": {
                            "start": "2012-11-01",
                            "end": "2012-12-31"
                        }
                    }
                ],
                "prescription": {
                    "reference": "MedicationPrescription/c3cbf741-81ee-49bb-9a55-bcf6daf8efdf",
                    "display": "Ativan - 1mg by mouth three times daily as needed for irritability"
                },
                "contained": [
                    {
                        "id": "med",
                        "resourceType": "Medication",
                        "name": "Lorazepam 0.5 MG Oral Tablet",
                        "code": {
                            "coding": [
                                {
                                    "system": "http://www.nlm.nih.gov/research/umls/rxnorm",
                                    "code": "197900",
                                    "display": "Lorazepam 0.5 MG Oral Tablet"
                                }
                            ],
                            "text": "Lorazepam 0.5 MG Oral Tablet"
                        }
                    }
                ],
                "medication": {
                    "reference": "#med",
                    "display": "Lorazepam 0.5 MG Oral Tablet"
                },
                "patient": {
                    "reference": "Patient/some-id-here-1987",
                    "display": "DOE, JOE"
                }
            }
        },
        {
            "id": "MedicationPrescription/6989aa8a-cd5a-465e-a4d3-3c233c27fc17",
            "content": {
                "resourceType": "MedicationPrescription",
                "status": "active",
                "dateWritten": "2012-11-01",
                "dosageInstruction": [
                    {
                        "route": {
                            "coding": [
                                {
                                    "system": "urn:oid:2.16.840.1.113883.3.26.1.1",
                                    "code": "C38288",
                                    "display": "oral"
                                }
                            ],
                            "text": "oral"
                        },
                        "doseQuantity": {
                            "value": 1
                        },
                        "timingSchedule": {
                            "event": [
                                {
                                    "start": "2012-11-01"
                                }
                            ],
                            "repeat": {
                                "frequency": 1,
                                "duration": 12,
                                "units": "h",
                                "end": "2012-12-31"
                            }
                        }
                    }
                ],
                "text": {
                    "status": "generated",
                    "div": "miodarone - 200mg by mouth two times daily"
                },
                "contained": [
                    {
                        "id": "med",
                        "resourceType": "Medication",
                        "name": "Cordarone 200 MG Oral Tablet",
                        "code": {
                            "coding": [
                                {
                                    "system": "http://www.nlm.nih.gov/research/umls/rxnorm",
                                    "code": "833530",
                                    "display": "Cordarone 200 MG Oral Tablet"
                                }
                            ],
                            "text": "Cordarone 200 MG Oral Tablet"
                        }
                    }
                ],
                "medication": {
                    "reference": "#med",
                    "display": "Cordarone 200 MG Oral Tablet"
                },
                "patient": {
                    "reference": "Patient/some-id-here-1987",
                    "display": "DOE, JOE"
                }
            }
        },
        {
            "id": "MedicationAdministration/449f2900-8a9c-4a07-bde6-f3e41e8f8043",
            "content": {
                "resourceType": "MedicationAdministration",
                "status": "completed",
                "practitioner": {
                    "reference": "Practitioner/unknown",
                    "display": "Unknown"
                },
                "whenGiven": {
                    "start": "2012-11-01",
                    "end": "2012-12-31"
                },
                "dosage": [
                    {
                        "route": {
                            "coding": [
                                {
                                    "system": "urn:oid:2.16.840.1.113883.3.26.1.1",
                                    "code": "C38288",
                                    "display": "oral"
                                }
                            ],
                            "text": "oral"
                        },
                        "quantity": {
                            "value": 1
                        },
                        "timingPeriod": {
                            "start": "2012-11-01",
                            "end": "2012-12-31"
                        }
                    }
                ],
                "prescription": {
                    "reference": "MedicationPrescription/6989aa8a-cd5a-465e-a4d3-3c233c27fc17",
                    "display": "miodarone - 200mg by mouth two times daily"
                },
                "contained": [
                    {
                        "id": "med",
                        "resourceType": "Medication",
                        "name": "Cordarone 200 MG Oral Tablet",
                        "code": {
                            "coding": [
                                {
                                    "system": "http://www.nlm.nih.gov/research/umls/rxnorm",
                                    "code": "833530",
                                    "display": "Cordarone 200 MG Oral Tablet"
                                }
                            ],
                            "text": "Cordarone 200 MG Oral Tablet"
                        }
                    }
                ],
                "medication": {
                    "reference": "#med",
                    "display": "Cordarone 200 MG Oral Tablet"
                },
                "patient": {
                    "reference": "Patient/some-id-here-1987",
                    "display": "DOE, JOE"
                }
            }
        },
        {
            "id": "MedicationPrescription/13224763-7733-42ed-bc27-c110be18583a",
            "content": {
                "resourceType": "MedicationPrescription",
                "status": "active",
                "dateWritten": "2012-11-01",
                "dosageInstruction": [
                    {
                        "route": {
                            "coding": [
                                {
                                    "system": "urn:oid:2.16.840.1.113883.3.26.1.1",
                                    "code": "C38288",
                                    "display": "oral"
                                }
                            ],
                            "text": "oral"
                        },
                        "doseQuantity": {
                            "value": 1
                        },
                        "timingSchedule": {
                            "event": [
                                {
                                    "start": "2012-11-01"
                                }
                            ],
                            "repeat": {
                                "frequency": 1,
                                "duration": 2,
                                "units": "d",
                                "end": "2012-12-31"
                            }
                        }
                    }
                ],
                "text": {
                    "status": "generated",
                    "div": "Coumadin - 5mg by mouth every other day starting 11/1/2012"
                },
                "contained": [
                    {
                        "id": "med",
                        "resourceType": "Medication",
                        "name": "Warfarin Sodium 5 MG Oral Tablet",
                        "code": {
                            "coding": [
                                {
                                    "system": "http://www.nlm.nih.gov/research/umls/rxnorm",
                                    "code": "855332",
                                    "display": "Warfarin Sodium 5 MG Oral Tablet"
                                }
                            ],
                            "text": "Warfarin Sodium 5 MG Oral Tablet"
                        }
                    }
                ],
                "medication": {
                    "reference": "#med",
                    "display": "Warfarin Sodium 5 MG Oral Tablet"
                },
                "patient": {
                    "reference": "Patient/some-id-here-1987",
                    "display": "DOE, JOE"
                }
            }
        },
        {
            "id": "MedicationAdministration/23307515-43c2-418e-bd1c-36b8cb9a1786",
            "content": {
                "resourceType": "MedicationAdministration",
                "status": "completed",
                "practitioner": {
                    "reference": "Practitioner/unknown",
                    "display": "Unknown"
                },
                "whenGiven": {
                    "start": "2012-11-01",
                    "end": "2012-12-31"
                },
                "dosage": [
                    {
                        "route": {
                            "coding": [
                                {
                                    "system": "urn:oid:2.16.840.1.113883.3.26.1.1",
                                    "code": "C38288",
                                    "display": "oral"
                                }
                            ],
                            "text": "oral"
                        },
                        "quantity": {
                            "value": 1
                        },
                        "timingPeriod": {
                            "start": "2012-11-01",
                            "end": "2012-12-31"
                        }
                    }
                ],
                "prescription": {
                    "reference": "MedicationPrescription/13224763-7733-42ed-bc27-c110be18583a",
                    "display": "Coumadin - 5mg by mouth every other day starting 11/1/2012"
                },
                "contained": [
                    {
                        "id": "med",
                        "resourceType": "Medication",
                        "name": "Warfarin Sodium 5 MG Oral Tablet",
                        "code": {
                            "coding": [
                                {
                                    "system": "http://www.nlm.nih.gov/research/umls/rxnorm",
                                    "code": "855332",
                                    "display": "Warfarin Sodium 5 MG Oral Tablet"
                                }
                            ],
                            "text": "Warfarin Sodium 5 MG Oral Tablet"
                        }
                    }
                ],
                "medication": {
                    "reference": "#med",
                    "display": "Warfarin Sodium 5 MG Oral Tablet"
                },
                "patient": {
                    "reference": "Patient/some-id-here-1987",
                    "display": "DOE, JOE"
                }
            }
        },
        {
            "id": "MedicationPrescription/345ddf90-34fd-4e5c-8d6a-fc749b80c970",
            "content": {
                "resourceType": "MedicationPrescription",
                "status": "active",
                "dateWritten": "2012-11-01",
                "dosageInstruction": [
                    {
                        "route": {
                            "coding": [
                                {
                                    "system": "urn:oid:2.16.840.1.113883.3.26.1.1",
                                    "code": "C38288",
                                    "display": "oral"
                                }
                            ],
                            "text": "oral"
                        },
                        "doseQuantity": {
                            "value": 1
                        },
                        "timingSchedule": {
                            "event": [
                                {
                                    "start": "2012-11-01"
                                }
                            ],
                            "repeat": {
                                "frequency": 1,
                                "duration": 2,
                                "units": "d",
                                "end": "2012-12-31"
                            }
                        }
                    }
                ],
                "text": {
                    "status": "generated",
                    "div": "Coumadin - 2.5mg by mouth every other day starting 11/2/2012"
                },
                "contained": [
                    {
                        "id": "med",
                        "resourceType": "Medication",
                        "name": "Warfarin Sodium 2.5 MG Oral Tablet",
                        "code": {
                            "coding": [
                                {
                                    "system": "http://www.nlm.nih.gov/research/umls/rxnorm",
                                    "code": "855312",
                                    "display": "Warfarin Sodium 2.5 MG Oral Tablet"
                                }
                            ],
                            "text": "Warfarin Sodium 2.5 MG Oral Tablet"
                        }
                    }
                ],
                "medication": {
                    "reference": "#med",
                    "display": "Warfarin Sodium 2.5 MG Oral Tablet"
                },
                "patient": {
                    "reference": "Patient/some-id-here-1987",
                    "display": "DOE, JOE"
                }
            }
        },
        {
            "id": "MedicationAdministration/8810d352-78c1-4c9c-a587-8d9ed05fd503",
            "content": {
                "resourceType": "MedicationAdministration",
                "status": "completed",
                "practitioner": {
                    "reference": "Practitioner/unknown",
                    "display": "Unknown"
                },
                "whenGiven": {
                    "start": "2012-11-01",
                    "end": "2012-12-31"
                },
                "dosage": [
                    {
                        "route": {
                            "coding": [
                                {
                                    "system": "urn:oid:2.16.840.1.113883.3.26.1.1",
                                    "code": "C38288",
                                    "display": "oral"
                                }
                            ],
                            "text": "oral"
                        },
                        "quantity": {
                            "value": 1
                        },
                        "timingPeriod": {
                            "start": "2012-11-01",
                            "end": "2012-12-31"
                        }
                    }
                ],
                "prescription": {
                    "reference": "MedicationPrescription/345ddf90-34fd-4e5c-8d6a-fc749b80c970",
                    "display": "Coumadin - 2.5mg by mouth every other day starting 11/2/2012"
                },
                "contained": [
                    {
                        "id": "med",
                        "resourceType": "Medication",
                        "name": "Warfarin Sodium 2.5 MG Oral Tablet",
                        "code": {
                            "coding": [
                                {
                                    "system": "http://www.nlm.nih.gov/research/umls/rxnorm",
                                    "code": "855312",
                                    "display": "Warfarin Sodium 2.5 MG Oral Tablet"
                                }
                            ],
                            "text": "Warfarin Sodium 2.5 MG Oral Tablet"
                        }
                    }
                ],
                "medication": {
                    "reference": "#med",
                    "display": "Warfarin Sodium 2.5 MG Oral Tablet"
                },
                "patient": {
                    "reference": "Patient/some-id-here-1987",
                    "display": "DOE, JOE"
                }
            }
        },
        {
            "id": "MedicationPrescription/6bb492d4-7e05-41a6-bfbe-d6d23ea7df9f",
            "content": {
                "resourceType": "MedicationPrescription",
                "status": "active",
                "dateWritten": "2012-11-01",
                "dosageInstruction": [
                    {
                        "route": {
                            "coding": [
                                {
                                    "system": "urn:oid:2.16.840.1.113883.3.26.1.1",
                                    "code": "C38288",
                                    "display": "oral"
                                }
                            ],
                            "text": "oral"
                        },
                        "doseQuantity": {
                            "value": 1
                        },
                        "timingSchedule": {
                            "event": [
                                {
                                    "start": "2012-11-01"
                                }
                            ],
                            "repeat": {
                                "frequency": 1,
                                "duration": 1,
                                "units": "s",
                                "end": "2012-12-31"
                            }
                        }
                    }
                ],
                "text": {
                    "status": "generated",
                    "div": "Ambien - 5mg by mouth once daily before bed"
                },
                "contained": [
                    {
                        "id": "med",
                        "resourceType": "Medication",
                        "name": "Ambien 5 MG Oral Tablet",
                        "code": {
                            "coding": [
                                {
                                    "system": "http://www.nlm.nih.gov/research/umls/rxnorm",
                                    "code": "854878",
                                    "display": "Ambien 5 MG Oral Tablet"
                                }
                            ],
                            "text": "Ambien 5 MG Oral Tablet"
                        }
                    }
                ],
                "medication": {
                    "reference": "#med",
                    "display": "Ambien 5 MG Oral Tablet"
                },
                "patient": {
                    "reference": "Patient/some-id-here-1987",
                    "display": "DOE, JOE"
                }
            }
        },
        {
            "id": "MedicationAdministration/8ab67f6b-91ff-4cdd-8bad-dcbd2d6e1ddc",
            "content": {
                "resourceType": "MedicationAdministration",
                "status": "completed",
                "practitioner": {
                    "reference": "Practitioner/unknown",
                    "display": "Unknown"
                },
                "whenGiven": {
                    "start": "2012-11-01",
                    "end": "2012-12-31"
                },
                "dosage": [
                    {
                        "route": {
                            "coding": [
                                {
                                    "system": "urn:oid:2.16.840.1.113883.3.26.1.1",
                                    "code": "C38288",
                                    "display": "oral"
                                }
                            ],
                            "text": "oral"
                        },
                        "quantity": {
                            "value": 1
                        },
                        "timingPeriod": {
                            "start": "2012-11-01",
                            "end": "2012-12-31"
                        }
                    }
                ],
                "prescription": {
                    "reference": "MedicationPrescription/6bb492d4-7e05-41a6-bfbe-d6d23ea7df9f",
                    "display": "Ambien - 5mg by mouth once daily before bed"
                },
                "contained": [
                    {
                        "id": "med",
                        "resourceType": "Medication",
                        "name": "Ambien 5 MG Oral Tablet",
                        "code": {
                            "coding": [
                                {
                                    "system": "http://www.nlm.nih.gov/research/umls/rxnorm",
                                    "code": "854878",
                                    "display": "Ambien 5 MG Oral Tablet"
                                }
                            ],
                            "text": "Ambien 5 MG Oral Tablet"
                        }
                    }
                ],
                "medication": {
                    "reference": "#med",
                    "display": "Ambien 5 MG Oral Tablet"
                },
                "patient": {
                    "reference": "Patient/some-id-here-1987",
                    "display": "DOE, JOE"
                }
            }
        }
    ]
}