{
    "resourceType": "Bundle",
    "totalResults": 65,
    "entry": [
        {
            "id": "AdverseReaction/0",
            "content": {
                "resourceType": "AdverseReaction",
                "symptom": [
                    {
                        "severity": "moderate",
                        "code": {
                            "coding": [
                                {
                                    "system": "http://snomed.info/sct",
                                    "code": "404640003",
                                    "display": "Dizziness"
                                }
                            ],
                            "text": "Dizziness"
                        }
                    }
                ],
                "didNotOccurFlag": false
            }
        },
        {
            "id": "AllergyIntolerance/1",
            "content": {
                "resourceType": "AllergyIntolerance",
                "sensitivityType": "allergy",
                "recordedDate": "1960-01-01",
                "status": "confirmed",
                "contained": [
                    {
                        "id": "allergen",
                        "resourceType": "Substance",
                        "type": {
                            "coding": [
                                {
                                    "system": "http://www.nlm.nih.gov/research/umls/rxnorm",
                                    "code": "70618",
                                    "display": "Penicillin"
                                }
                            ],
                            "text": "Penicillin"
                        }
                    }
                ],
                "substance": {
                    "reference": "#allergen",
                    "display": "Penicillin"
                },
                "reaction": [
                    {
                        "reference": "AdverseReaction/0",
                        "display": "Dizziness"
                    }
                ]
            }
        },
        {
            "id": "AdverseReaction/2",
            "content": {
                "resourceType": "AdverseReaction",
                "symptom": [
                    {
                        "severity": "severe",
                        "code": {
                            "coding": [
                                {
                                    "system": "http://snomed.info/sct",
                                    "code": "417516000",
                                    "display": "Anaphylaxis due to substance"
                                }
                            ],
                            "text": "Anaphylaxis due to substance"
                        }
                    }
                ],
                "didNotOccurFlag": false
            }
        },
        {
            "id": "AllergyIntolerance/3",
            "content": {
                "resourceType": "AllergyIntolerance",
                "sensitivityType": "allergy",
                "recordedDate": "1940-01-01",
                "status": "confirmed",
                "contained": [
                    {
                        "id": "allergen",
                        "resourceType": "Substance",
                        "type": {
                            "coding": [
                                {
                                    "system": "http://fdasis.nlm.nih.gov",
                                    "code": "3729L8MA2C",
                                    "display": "Bee Pollen"
                                }
                            ],
                            "text": "Bee Pollen"
                        }
                    }
                ],
                "substance": {
                    "reference": "#allergen",
                    "display": "Bee Pollen"
                },
                "reaction": [
                    {
                        "reference": "AdverseReaction/2",
                        "display": "Anaphylaxis due to substance"
                    }
                ]
            }
        },
        {
            "id": "Condition/4",
            "content": {
                "resourceType": "Condition",
                "status": "confirmed",
                "onsetDate": "2005-05-01",
                "dateAsserted": "2005-05-01",
                "code": {
                    "coding": [
                        {
                            "system": "http://snomed.info/sct",
                            "code": "5962100",
                            "display": "Essential Hypertension"
                        }
                    ],
                    "text": "Essential Hypertension"
                }
            }
        },
        {
            "id": "Condition/5",
            "content": {
                "resourceType": "Condition",
                "status": "confirmed",
                "onsetDate": "2005-05-01",
                "dateAsserted": "2005-05-01",
                "code": {
                    "coding": [
                        {
                            "system": "http://snomed.info/sct",
                            "code": "5582204",
                            "display": "Hyperlipidemia"
                        }
                    ],
                    "text": "Hyperlipidemia"
                }
            }
        },
        {
            "id": "Condition/6",
            "content": {
                "resourceType": "Condition",
                "status": "confirmed",
                "onsetDate": "2008-11-01",
                "dateAsserted": "2008-11-01",
                "code": {
                    "coding": [
                        {
                            "system": "http://snomed.info/sct",
                            "code": "44054006",
                            "display": "Diabetes Mellitus Type II"
                        }
                    ],
                    "text": "Diabetes Mellitus Type II"
                }
            }
        },
        {
            "id": "Condition/7",
            "content": {
                "resourceType": "Condition",
                "status": "confirmed",
                "onsetDate": "2009-01-01",
                "dateAsserted": "2009-01-01",
                "code": {
                    "coding": [
                        {
                            "system": "http://snomed.info/sct",
                            "code": "433144002",
                            "display": "Chronic Kidney Disease Stage III"
                        }
                    ],
                    "text": "Chronic Kidney Disease Stage III"
                }
            }
        },
        {
            "id": "Condition/8",
            "content": {
                "resourceType": "Condition",
                "status": "confirmed",
                "onsetDate": "2006-11-01",
                "dateAsserted": "2006-11-01",
                "code": {
                    "coding": [
                        {
                            "system": "http://snomed.info/sct",
                            "code": "40930008",
                            "display": "Hypothyroidism"
                        }
                    ],
                    "text": "Hypothyroidism"
                }
            }
        },
        {
            "id": "Condition/9",
            "content": {
                "resourceType": "Condition",
                "status": "confirmed",
                "onsetDate": "2009-07-01",
                "dateAsserted": "2009-07-01",
                "code": {
                    "coding": [
                        {
                            "system": "http://snomed.info/sct",
                            "code": "8957000",
                            "display": "Coronary Artery Disease"
                        }
                    ],
                    "text": "Coronary Artery Disease"
                }
            }
        },
        {
            "id": "Condition/10",
            "content": {
                "resourceType": "Condition",
                "status": "confirmed",
                "onsetDate": "2008-04-01",
                "dateAsserted": "2008-04-01",
                "code": {
                    "coding": [
                        {
                            "system": "http://snomed.info/sct",
                            "code": "266569009",
                            "display": "Benign prostatic hyperplasia"
                        }
                    ],
                    "text": "Benign prostatic hyperplasia"
                }
            }
        },
        {
            "id": "Condition/11",
            "content": {
                "resourceType": "Condition",
                "status": "confirmed",
                "onsetDate": "2010-09-01",
                "dateAsserted": "2010-09-01",
                "code": {
                    "coding": [
                        {
                            "system": "http://snomed.info/sct",
                            "code": "49436004",
                            "display": "Atrial fibrillation"
                        }
                    ],
                    "text": "Atrial fibrillation"
                }
            }
        },
        {
            "id": "Condition/12",
            "content": {
                "resourceType": "Condition",
                "status": "confirmed",
                "onsetDate": "2006-06-01",
                "dateAsserted": "2006-06-01",
                "code": {
                    "coding": [
                        {
                            "system": "http://snomed.info/sct",
                            "code": "230572002",
                            "display": "Diabetic neuropathy"
                        }
                    ],
                    "text": "Diabetic neuropathy"
                }
            }
        },
        {
            "id": "Condition/13",
            "content": {
                "resourceType": "Condition",
                "status": "confirmed",
                "onsetDate": "1997-10-01",
                "dateAsserted": "1997-10-01",
                "code": {
                    "coding": [
                        {
                            "system": "http://snomed.info/sct",
                            "code": "238134004",
                            "display": "Generalized obesity"
                        }
                    ],
                    "text": "Generalized obesity"
                }
            }
        },
        {
            "id": "Condition/14",
            "content": {
                "resourceType": "Condition",
                "status": "confirmed",
                "onsetDate": "2011-09-01",
                "dateAsserted": "2011-09-01",
                "code": {
                    "coding": [
                        {
                            "system": "http://snomed.info/sct",
                            "code": "193462001",
                            "display": "Insomnia"
                        }
                    ],
                    "text": "Insomnia"
                }
            }
        },
        {
            "id": "Observation/15",
            "content": {
                "resourceType": "Observation",
                "name": {
                    "coding": [
                        {
                            "system": "http://loinc.org",
                            "code": "3016-3",
                            "display": "Thyrotropin [Units/volume] in Serum or Plasma"
                        }
                    ],
                    "text": "Thyrotropin [Units/volume] in Serum or Plasma"
                },
                "valueQuantity": {
                    "value": 6,
                    "units": "m[IU]/L",
                    "code": "m[IU]/L",
                    "system": "http://unitsofmeasure.org"
                },
                "issued": "2012-11-26",
                "status": "final",
                "reliability": "ok",
                "extension": [
                    {
                        "url": "http://amida.com/fhir/Profile/extensions#observation-type",
                        "valueCoding": {
                            "code": "11502-2",
                            "display": "Laboratory report",
                            "system": "http://loinc.org"
                        }
                    }
                ],
                "interpretation": {
                    "coding": [
                        {
                            "system": "http://hl7.org/fhir/v2/0078",
                            "code": "A",
                            "display": "abnormal"
                        }
                    ],
                    "text": "abnormal"
                },
                "referenceRange": [
                    {
                        "meaning": {
                            "coding": [
                                {
                                    "system": "http://hl7.org/fhir/referencerange-meaning",
                                    "code": "normal",
                                    "display": "Normal Range"
                                }
                            ],
                            "text": "Normal Range"
                        },
                        "text": "normal: 0.29–5.11 IU/ml"
                    }
                ]
            }
        },
        {
            "id": "Observation/16",
            "content": {
                "resourceType": "Observation",
                "name": {
                    "coding": [
                        {
                            "system": "http://loinc.org",
                            "code": "11579-0",
                            "display": "Thyrotropin [Units/volume] in Serum or Plasma by Detection limit less than or equal to 0.05 mIU/L"
                        }
                    ],
                    "text": "Thyrotropin [Units/volume] in Serum or Plasma by Detection limit less than or equal to 0.05 mIU/L"
                },
                "status": "final",
                "reliability": "ok",
                "related": [
                    {
                        "type": "has-component",
                        "target": {
                            "reference": "Observation/15"
                        }
                    }
                ],
                "extension": [
                    {
                        "url": "http://amida.com/fhir/Profile/extensions#observation-type",
                        "valueCoding": {
                            "code": "11502-2",
                            "display": "Laboratory report",
                            "system": "http://loinc.org"
                        }
                    }
                ]
            }
        },
        {
            "id": "Observation/17",
            "content": {
                "resourceType": "Observation",
                "name": {
                    "coding": [
                        {
                            "system": "http://loinc.org",
                            "code": "4548-4",
                            "display": "Hemoglobin A1c/Hemoglobin.total in Blood"
                        }
                    ],
                    "text": "Hemoglobin A1c/Hemoglobin.total in Blood"
                },
                "valueQuantity": {
                    "value": 8,
                    "units": "%",
                    "code": "%",
                    "system": "http://unitsofmeasure.org"
                },
                "issued": "2012-11-26",
                "status": "final",
                "reliability": "ok",
                "extension": [
                    {
                        "url": "http://amida.com/fhir/Profile/extensions#observation-type",
                        "valueCoding": {
                            "code": "11502-2",
                            "display": "Laboratory report",
                            "system": "http://loinc.org"
                        }
                    }
                ],
                "interpretation": {
                    "coding": [
                        {
                            "system": "http://hl7.org/fhir/v2/0078",
                            "code": "A",
                            "display": "abnormal"
                        }
                    ],
                    "text": "abnormal"
                },
                "referenceRange": [
                    {
                        "meaning": {
                            "coding": [
                                {
                                    "system": "http://hl7.org/fhir/referencerange-meaning",
                                    "code": "normal",
                                    "display": "Normal Range"
                                }
                            ],
                            "text": "Normal Range"
                        },
                        "text": "normal: 4.0-5.6%"
                    }
                ]
            }
        },
        {
            "id": "Observation/18",
            "content": {
                "resourceType": "Observation",
                "name": {
                    "coding": [
                        {
                            "system": "http://loinc.org",
                            "code": "2160-0",
                            "display": "Creatinine [Mass/volume] in Serum or Plasma"
                        }
                    ],
                    "text": "Creatinine [Mass/volume] in Serum or Plasma"
                },
                "valueQuantity": {
                    "value": 1.5,
                    "units": "mg/dL",
                    "code": "mg/dL",
                    "system": "http://unitsofmeasure.org"
                },
                "issued": "2012-11-26",
                "status": "final",
                "reliability": "ok",
                "extension": [
                    {
                        "url": "http://amida.com/fhir/Profile/extensions#observation-type",
                        "valueCoding": {
                            "code": "11502-2",
                            "display": "Laboratory report",
                            "system": "http://loinc.org"
                        }
                    }
                ],
                "interpretation": {
                    "coding": [
                        {
                            "system": "http://hl7.org/fhir/v2/0078",
                            "code": "A",
                            "display": "abnormal"
                        }
                    ],
                    "text": "abnormal"
                },
                "referenceRange": [
                    {
                        "meaning": {
                            "coding": [
                                {
                                    "system": "http://hl7.org/fhir/referencerange-meaning",
                                    "code": "normal",
                                    "display": "Normal Range"
                                }
                            ],
                            "text": "Normal Range"
                        },
                        "text": "normal: below 1.5 mg/dL"
                    }
                ]
            }
        },
        {
            "id": "Observation/19",
            "content": {
                "resourceType": "Observation",
                "name": {
                    "coding": [
                        {
                            "system": "http://loinc.org",
                            "code": "6301-6",
                            "display": "INR in Platelet poor plasma by Coagulation assay"
                        }
                    ],
                    "text": "INR in Platelet poor plasma by Coagulation assay"
                },
                "valueQuantity": {
                    "value": 1.5
                },
                "issued": "2012-11-26",
                "status": "final",
                "reliability": "ok",
                "extension": [
                    {
                        "url": "http://amida.com/fhir/Profile/extensions#observation-type",
                        "valueCoding": {
                            "code": "11502-2",
                            "display": "Laboratory report",
                            "system": "http://loinc.org"
                        }
                    }
                ],
                "interpretation": {
                    "coding": [
                        {
                            "system": "http://hl7.org/fhir/v2/0078",
                            "code": "A",
                            "display": "abnormal"
                        }
                    ],
                    "text": "abnormal"
                },
                "referenceRange": [
                    {
                        "meaning": {
                            "coding": [
                                {
                                    "system": "http://hl7.org/fhir/referencerange-meaning",
                                    "code": "normal",
                                    "display": "Normal Range"
                                }
                            ],
                            "text": "Normal Range"
                        },
                        "text": "Normal reference range 1.0-1.5; Targeted INR 2.0-3.0"
                    }
                ]
            }
        },
        {
            "id": "Observation/20",
            "content": {
                "resourceType": "Observation",
                "name": {
                    "coding": [
                        {
                            "system": "http://loinc.org",
                            "code": "18041-4",
                            "display": "Aortic valve Ejection [Time] by US.doppler"
                        }
                    ],
                    "text": "Aortic valve Ejection [Time] by US.doppler"
                },
                "valueQuantity": {
                    "value": 55,
                    "units": "%",
                    "code": "%",
                    "system": "http://unitsofmeasure.org"
                },
                "issued": "2012-11-26",
                "status": "final",
                "reliability": "ok",
                "extension": [
                    {
                        "url": "http://amida.com/fhir/Profile/extensions#observation-type",
                        "valueCoding": {
                            "code": "11502-2",
                            "display": "Laboratory report",
                            "system": "http://loinc.org"
                        }
                    }
                ],
                "interpretation": {
                    "coding": [
                        {
                            "system": "http://hl7.org/fhir/v2/0078",
                            "code": "N",
                            "display": "normal"
                        }
                    ],
                    "text": "normal"
                },
                "referenceRange": [
                    {
                        "meaning": {
                            "coding": [
                                {
                                    "system": "http://hl7.org/fhir/referencerange-meaning",
                                    "code": "normal",
                                    "display": "Normal Range"
                                }
                            ],
                            "text": "Normal Range"
                        },
                        "text": "Normal: 50-75%"
                    }
                ]
            }
        },
        {
            "id": "Observation/21",
            "content": {
                "resourceType": "Observation",
                "name": {
                    "coding": [
                        {
                            "system": "http://loinc.org",
                            "code": "18089-3",
                            "display": "AV Orifice Area US"
                        }
                    ],
                    "text": "AV Orifice Area US"
                },
                "valueQuantity": {
                    "value": 1.5,
                    "units": "cm2",
                    "code": "cm2",
                    "system": "http://unitsofmeasure.org"
                },
                "issued": "2012-11-26",
                "status": "final",
                "reliability": "ok",
                "extension": [
                    {
                        "url": "http://amida.com/fhir/Profile/extensions#observation-type",
                        "valueCoding": {
                            "code": "11502-2",
                            "display": "Laboratory report",
                            "system": "http://loinc.org"
                        }
                    }
                ],
                "interpretation": {
                    "coding": [
                        {
                            "system": "http://hl7.org/fhir/v2/0078",
                            "code": "A",
                            "display": "abnormal"
                        }
                    ],
                    "text": "abnormal"
                },
                "referenceRange": [
                    {
                        "meaning": {
                            "coding": [
                                {
                                    "system": "http://hl7.org/fhir/referencerange-meaning",
                                    "code": "normal",
                                    "display": "Normal Range"
                                }
                            ],
                            "text": "Normal Range"
                        },
                        "text": "Normal (3.0-4.0 cm2), mild (1.5–2.0 cm2), moderate (1.0–1.5 cm2), severe (less than 1.0 cm2)"
                    }
                ]
            }
        },
        {
            "id": "Observation/22",
            "content": {
                "resourceType": "Observation",
                "name": {
                    "coding": [
                        {
                            "system": "http://loinc.org",
                            "code": "34552-0",
                            "display": "2D echocardiogram panel"
                        }
                    ],
                    "text": "2D echocardiogram panel"
                },
                "status": "final",
                "reliability": "ok",
                "related": [
                    {
                        "type": "has-component",
                        "target": {
                            "reference": "Observation/20"
                        }
                    },
                    {
                        "type": "has-component",
                        "target": {
                            "reference": "Observation/21"
                        }
                    }
                ],
                "extension": [
                    {
                        "url": "http://amida.com/fhir/Profile/extensions#observation-type",
                        "valueCoding": {
                            "code": "11502-2",
                            "display": "Laboratory report",
                            "system": "http://loinc.org"
                        }
                    }
                ]
            }
        },
        {
            "id": "Observation/23",
            "content": {
                "resourceType": "Observation",
                "name": {
                    "coding": [
                        {
                            "system": "http://loinc.org",
                            "code": "18844-1",
                            "display": "EKG impression Narrative"
                        }
                    ],
                    "text": "EKG impression Narrative"
                },
                "valueString": "EKG rate 60s, A fib, LBBB",
                "issued": "2012-11-26",
                "status": "final",
                "reliability": "ok",
                "extension": [
                    {
                        "url": "http://amida.com/fhir/Profile/extensions#observation-type",
                        "valueCoding": {
                            "code": "11502-2",
                            "display": "Laboratory report",
                            "system": "http://loinc.org"
                        }
                    }
                ]
            }
        },
        {
            "id": "Observation/24",
            "content": {
                "resourceType": "Observation",
                "name": {
                    "coding": [
                        {
                            "system": "http://loinc.org",
                            "code": "34534-8",
                            "display": "EKG 12 channel panel"
                        }
                    ],
                    "text": "EKG 12 channel panel"
                },
                "status": "final",
                "reliability": "ok",
                "related": [
                    {
                        "type": "has-component",
                        "target": {
                            "reference": "Observation/23"
                        }
                    }
                ],
                "extension": [
                    {
                        "url": "http://amida.com/fhir/Profile/extensions#observation-type",
                        "valueCoding": {
                            "code": "11502-2",
                            "display": "Laboratory report",
                            "system": "http://loinc.org"
                        }
                    }
                ]
            }
        },
        {
            "id": "MedicationPrescription/25",
            "content": {
                "resourceType": "MedicationPrescription",
                "status": "active",
                "dateWritten": "2012-11-01",
                "dosageInstruction": [
                    {
                        "route": {
                            "coding": [
                                {
                                    "system": "urn:oid:2.16.840.1.113883.3.26.1.1",
                                    "code": "C38288",
                                    "display": "oral"
                                }
                            ],
                            "text": "oral"
                        },
                        "doseQuantity": {
                            "value": 1
                        },
                        "timingSchedule": {
                            "event": [
                                {
                                    "start": "2012-11-01"
                                }
                            ],
                            "repeat": {
                                "frequency": 1,
                                "duration": 24,
                                "units": "h",
                                "end": "2012-12-31"
                            }
                        }
                    }
                ],
                "text": {
                    "status": "generated",
                    "div": "Lisinopril - 20mg by mouth once daily"
                },
                "contained": [
                    {
                        "id": "med",
                        "resourceType": "Medication",
                        "name": "Lisinopril - 20mg by mouth once daily",
                        "code": {
                            "coding": [
                                {
                                    "system": "http://www.nlm.nih.gov/research/umls/rxnorm",
                                    "code": "314077",
                                    "display": "Lisinopril 20 MG Oral Tablet"
                                }
                            ],
                            "text": "Lisinopril 20 MG Oral Tablet"
                        }
                    }
                ],
                "medication": {
                    "reference": "#med",
                    "display": "Lisinopril - 20mg by mouth once daily"
                }
            }
        },
        {
            "id": "MedicationAdministration/26",
            "content": {
                "resourceType": "MedicationAdministration",
                "status": "completed",
                "practitioner": {
                    "reference": "Practitioner/unknown",
                    "display": "Unknown"
                },
                "whenGiven": {
                    "start": "2012-11-01",
                    "end": "2012-12-31"
                },
                "dosage": [
                    {
                        "route": {
                            "coding": [
                                {
                                    "system": "urn:oid:2.16.840.1.113883.3.26.1.1",
                                    "code": "C38288",
                                    "display": "oral"
                                }
                            ],
                            "text": "oral"
                        },
                        "quantity": {
                            "value": 1
                        },
                        "timingPeriod": {
                            "start": "2012-11-01",
                            "end": "2012-12-31"
                        }
                    }
                ],
                "prescription": {
                    "reference": "MedicationPrescription/25",
                    "display": "Lisinopril - 20mg by mouth once daily"
                },
                "contained": [
                    {
                        "id": "med",
                        "resourceType": "Medication",
                        "name": "Lisinopril - 20mg by mouth once daily",
                        "code": {
                            "coding": [
                                {
                                    "system": "http://www.nlm.nih.gov/research/umls/rxnorm",
                                    "code": "314077",
                                    "display": "Lisinopril 20 MG Oral Tablet"
                                }
                            ],
                            "text": "Lisinopril 20 MG Oral Tablet"
                        }
                    }
                ],
                "medication": {
                    "reference": "#med",
                    "display": "Lisinopril - 20mg by mouth once daily"
                }
            }
        },
        {
            "id": "MedicationPrescription/27",
            "content": {
                "resourceType": "MedicationPrescription",
                "status": "active",
                "dateWritten": "2012-11-01",
                "dosageInstruction": [
                    {
                        "route": {
                            "coding": [
                                {
                                    "system": "urn:oid:2.16.840.1.113883.3.26.1.1",
                                    "code": "C38288",
                                    "display": "oral"
                                }
                            ],
                            "text": "oral"
                        },
                        "doseQuantity": {
                            "value": 1
                        },
                        "timingSchedule": {
                            "event": [
                                {
                                    "start": "2012-11-01"
                                }
                            ],
                            "repeat": {
                                "frequency": 1,
                                "duration": 24,
                                "units": "h",
                                "end": "2012-12-31"
                            }
                        }
                    }
                ],
                "text": {
                    "status": "generated",
                    "div": "Lasix - 40mg by mouth once daily"
                },
                "contained": [
                    {
                        "id": "med",
                        "resourceType": "Medication",
                        "name": "Lasix - 40mg by mouth once daily",
                        "code": {
                            "coding": [
                                {
                                    "system": "http://www.nlm.nih.gov/research/umls/rxnorm",
                                    "code": "313988",
                                    "display": "Furosemide 40 MG Oral Tablet"
                                }
                            ],
                            "text": "Furosemide 40 MG Oral Tablet"
                        }
                    }
                ],
                "medication": {
                    "reference": "#med",
                    "display": "Lasix - 40mg by mouth once daily"
                }
            }
        },
        {
            "id": "MedicationAdministration/28",
            "content": {
                "resourceType": "MedicationAdministration",
                "status": "completed",
                "practitioner": {
                    "reference": "Practitioner/unknown",
                    "display": "Unknown"
                },
                "whenGiven": {
                    "start": "2012-11-01",
                    "end": "2012-12-31"
                },
                "dosage": [
                    {
                        "route": {
                            "coding": [
                                {
                                    "system": "urn:oid:2.16.840.1.113883.3.26.1.1",
                                    "code": "C38288",
                                    "display": "oral"
                                }
                            ],
                            "text": "oral"
                        },
                        "quantity": {
                            "value": 1
                        },
                        "timingPeriod": {
                            "start": "2012-11-01",
                            "end": "2012-12-31"
                        }
                    }
                ],
                "prescription": {
                    "reference": "MedicationPrescription/27",
                    "display": "Lasix - 40mg by mouth once daily"
                },
                "contained": [
                    {
                        "id": "med",
                        "resourceType": "Medication",
                        "name": "Lasix - 40mg by mouth once daily",
                        "code": {
                            "coding": [
                                {
                                    "system": "http://www.nlm.nih.gov/research/umls/rxnorm",
                                    "code": "313988",
                                    "display": "Furosemide 40 MG Oral Tablet"
                                }
                            ],
                            "text": "Furosemide 40 MG Oral Tablet"
                        }
                    }
                ],
                "medication": {
                    "reference": "#med",
                    "display": "Lasix - 40mg by mouth once daily"
                }
            }
        },
        {
            "id": "MedicationPrescription/29",
            "content": {
                "resourceType": "MedicationPrescription",
                "status": "active",
                "dateWritten": "2012-11-01",
                "dosageInstruction": [
                    {
                        "route": {
                            "coding": [
                                {
                                    "system": "urn:oid:2.16.840.1.113883.3.26.1.1",
                                    "code": "C38288",
                                    "display": "oral"
                                }
                            ],
                            "text": "oral"
                        },
                        "doseQuantity": {
                            "value": 1
                        },
                        "timingSchedule": {
                            "event": [
                                {
                                    "start": "2012-11-01"
                                }
                            ],
                            "repeat": {
                                "frequency": 1,
                                "duration": 24,
                                "units": "h",
                                "end": "2012-12-31"
                            }
                        }
                    }
                ],
                "text": {
                    "status": "generated",
                    "div": "K-Dur - 10mEq/L by mouth once daily"
                },
                "contained": [
                    {
                        "id": "med",
                        "resourceType": "Medication",
                        "name": "K-Dur - 10mEq/L by mouth once daily",
                        "code": {
                            "coding": [
                                {
                                    "system": "http://www.nlm.nih.gov/research/umls/rxnorm",
                                    "code": "706459",
                                    "display": "K-Dur 10 MEQ Extended Release Tablet"
                                }
                            ],
                            "text": "K-Dur 10 MEQ Extended Release Tablet"
                        }
                    }
                ],
                "medication": {
                    "reference": "#med",
                    "display": "K-Dur - 10mEq/L by mouth once daily"
                }
            }
        },
        {
            "id": "MedicationAdministration/30",
            "content": {
                "resourceType": "MedicationAdministration",
                "status": "completed",
                "practitioner": {
                    "reference": "Practitioner/unknown",
                    "display": "Unknown"
                },
                "whenGiven": {
                    "start": "2012-11-01",
                    "end": "2012-12-31"
                },
                "dosage": [
                    {
                        "route": {
                            "coding": [
                                {
                                    "system": "urn:oid:2.16.840.1.113883.3.26.1.1",
                                    "code": "C38288",
                                    "display": "oral"
                                }
                            ],
                            "text": "oral"
                        },
                        "quantity": {
                            "value": 1
                        },
                        "timingPeriod": {
                            "start": "2012-11-01",
                            "end": "2012-12-31"
                        }
                    }
                ],
                "prescription": {
                    "reference": "MedicationPrescription/29",
                    "display": "K-Dur - 10mEq/L by mouth once daily"
                },
                "contained": [
                    {
                        "id": "med",
                        "resourceType": "Medication",
                        "name": "K-Dur - 10mEq/L by mouth once daily",
                        "code": {
                            "coding": [
                                {
                                    "system": "http://www.nlm.nih.gov/research/umls/rxnorm",
                                    "code": "706459",
                                    "display": "K-Dur 10 MEQ Extended Release Tablet"
                                }
                            ],
                            "text": "K-Dur 10 MEQ Extended Release Tablet"
                        }
                    }
                ],
                "medication": {
                    "reference": "#med",
                    "display": "K-Dur - 10mEq/L by mouth once daily"
                }
            }
        },
        {
            "id": "MedicationPrescription/31",
            "content": {
                "resourceType": "MedicationPrescription",
                "status": "active",
                "dateWritten": "2012-11-01",
                "dosageInstruction": [
                    {
                        "route": {
                            "coding": [
                                {
                                    "system": "urn:oid:2.16.840.1.113883.3.26.1.1",
                                    "code": "C38288",
                                    "display": "oral"
                                }
                            ],
                            "text": "oral"
                        },
                        "doseQuantity": {
                            "value": 1
                        },
                        "timingSchedule": {
                            "event": [
                                {
                                    "start": "2012-11-01"
                                }
                            ],
                            "repeat": {
                                "frequency": 1,
                                "duration": 24,
                                "units": "h",
                                "end": "2012-12-31"
                            }
                        }
                    }
                ],
                "text": {
                    "status": "generated",
                    "div": "Norvasc - 10mg by mouth once daily"
                },
                "contained": [
                    {
                        "id": "med",
                        "resourceType": "Medication",
                        "name": "Norvasc - 10mg by mouth once daily",
                        "code": {
                            "coding": [
                                {
                                    "system": "http://www.nlm.nih.gov/research/umls/rxnorm",
                                    "code": "308135",
                                    "display": "Amlodipine 10 MG Oral Tablet"
                                }
                            ],
                            "text": "Amlodipine 10 MG Oral Tablet"
                        }
                    }
                ],
                "medication": {
                    "reference": "#med",
                    "display": "Norvasc - 10mg by mouth once daily"
                }
            }
        },
        {
            "id": "MedicationAdministration/32",
            "content": {
                "resourceType": "MedicationAdministration",
                "status": "completed",
                "practitioner": {
                    "reference": "Practitioner/unknown",
                    "display": "Unknown"
                },
                "whenGiven": {
                    "start": "2012-11-01",
                    "end": "2012-12-31"
                },
                "dosage": [
                    {
                        "route": {
                            "coding": [
                                {
                                    "system": "urn:oid:2.16.840.1.113883.3.26.1.1",
                                    "code": "C38288",
                                    "display": "oral"
                                }
                            ],
                            "text": "oral"
                        },
                        "quantity": {
                            "value": 1
                        },
                        "timingPeriod": {
                            "start": "2012-11-01",
                            "end": "2012-12-31"
                        }
                    }
                ],
                "prescription": {
                    "reference": "MedicationPrescription/31",
                    "display": "Norvasc - 10mg by mouth once daily"
                },
                "contained": [
                    {
                        "id": "med",
                        "resourceType": "Medication",
                        "name": "Norvasc - 10mg by mouth once daily",
                        "code": {
                            "coding": [
                                {
                                    "system": "http://www.nlm.nih.gov/research/umls/rxnorm",
                                    "code": "308135",
                                    "display": "Amlodipine 10 MG Oral Tablet"
                                }
                            ],
                            "text": "Amlodipine 10 MG Oral Tablet"
                        }
                    }
                ],
                "medication": {
                    "reference": "#med",
                    "display": "Norvasc - 10mg by mouth once daily"
                }
            }
        },
        {
            "id": "MedicationPrescription/33",
            "content": {
                "resourceType": "MedicationPrescription",
                "status": "active",
                "dateWritten": "2012-11-01",
                "dosageInstruction": [
                    {
                        "route": {
                            "coding": [
                                {
                                    "system": "urn:oid:2.16.840.1.113883.3.26.1.1",
                                    "code": "C38288",
                                    "display": "oral"
                                }
                            ],
                            "text": "oral"
                        },
                        "doseQuantity": {
                            "value": 1
                        },
                        "timingSchedule": {
                            "event": [
                                {
                                    "start": "2012-11-01"
                                }
                            ],
                            "repeat": {
                                "when": "HS",
                                "end": "2012-12-31",
                                "duration": 1,
                                "units": "s"
                            }
                        }
                    }
                ],
                "text": {
                    "status": "generated",
                    "div": "Zocor - 40mg by mouth once daily before bed"
                },
                "contained": [
                    {
                        "id": "med",
                        "resourceType": "Medication",
                        "name": "Zocor - 40mg by mouth once daily before bed",
                        "code": {
                            "coding": [
                                {
                                    "system": "http://www.nlm.nih.gov/research/umls/rxnorm",
                                    "code": "198211",
                                    "display": "Simvastatin 40 MG Oral Tablet"
                                }
                            ],
                            "text": "Simvastatin 40 MG Oral Tablet"
                        }
                    }
                ],
                "medication": {
                    "reference": "#med",
                    "display": "Zocor - 40mg by mouth once daily before bed"
                }
            }
        },
        {
            "id": "MedicationAdministration/34",
            "content": {
                "resourceType": "MedicationAdministration",
                "status": "completed",
                "practitioner": {
                    "reference": "Practitioner/unknown",
                    "display": "Unknown"
                },
                "whenGiven": {
                    "start": "2012-11-01",
                    "end": "2012-12-31"
                },
                "dosage": [
                    {
                        "route": {
                            "coding": [
                                {
                                    "system": "urn:oid:2.16.840.1.113883.3.26.1.1",
                                    "code": "C38288",
                                    "display": "oral"
                                }
                            ],
                            "text": "oral"
                        },
                        "quantity": {
                            "value": 1
                        },
                        "timingPeriod": {
                            "start": "2012-11-01",
                            "end": "2012-12-31"
                        }
                    }
                ],
                "prescription": {
                    "reference": "MedicationPrescription/33",
                    "display": "Zocor - 40mg by mouth once daily before bed"
                },
                "contained": [
                    {
                        "id": "med",
                        "resourceType": "Medication",
                        "name": "Zocor - 40mg by mouth once daily before bed",
                        "code": {
                            "coding": [
                                {
                                    "system": "http://www.nlm.nih.gov/research/umls/rxnorm",
                                    "code": "198211",
                                    "display": "Simvastatin 40 MG Oral Tablet"
                                }
                            ],
                            "text": "Simvastatin 40 MG Oral Tablet"
                        }
                    }
                ],
                "medication": {
                    "reference": "#med",
                    "display": "Zocor - 40mg by mouth once daily before bed"
                }
            }
        },
        {
            "id": "MedicationPrescription/35",
            "content": {
                "resourceType": "MedicationPrescription",
                "status": "active",
                "dateWritten": "2012-11-01",
                "dosageInstruction": [
                    {
                        "route": {
                            "coding": [
                                {
                                    "system": "urn:oid:2.16.840.1.113883.3.26.1.1",
                                    "code": "C38299",
                                    "display": "SUBCUTANEOUS"
                                }
                            ],
                            "text": "SUBCUTANEOUS"
                        },
                        "doseQuantity": {
                            "value": 0.36,
                            "units": "ml",
                            "code": "ml",
                            "system": "http://unitsofmeasure.org"
                        },
                        "timingSchedule": {
                            "event": [
                                {
                                    "start": "2012-11-01"
                                }
                            ],
                            "repeat": {
                                "when": "HS",
                                "end": "2012-12-31",
                                "duration": 1,
                                "units": "s"
                            }
                        }
                    }
                ],
                "text": {
                    "status": "generated",
                    "div": "Lantus - 36 units once daily before bed"
                },
                "contained": [
                    {
                        "id": "med",
                        "resourceType": "Medication",
                        "name": "Lantus - 36 units once daily before bed",
                        "code": {
                            "coding": [
                                {
                                    "system": "http://www.nlm.nih.gov/research/umls/rxnorm",
                                    "code": "311041",
                                    "display": "Insulin Glargine 100 UNT/ML Injectable Solution"
                                }
                            ],
                            "text": "Insulin Glargine 100 UNT/ML Injectable Solution"
                        }
                    }
                ],
                "medication": {
                    "reference": "#med",
                    "display": "Lantus - 36 units once daily before bed"
                }
            }
        },
        {
            "id": "MedicationAdministration/36",
            "content": {
                "resourceType": "MedicationAdministration",
                "status": "completed",
                "practitioner": {
                    "reference": "Practitioner/unknown",
                    "display": "Unknown"
                },
                "whenGiven": {
                    "start": "2012-11-01",
                    "end": "2012-12-31"
                },
                "dosage": [
                    {
                        "route": {
                            "coding": [
                                {
                                    "system": "urn:oid:2.16.840.1.113883.3.26.1.1",
                                    "code": "C38299",
                                    "display": "SUBCUTANEOUS"
                                }
                            ],
                            "text": "SUBCUTANEOUS"
                        },
                        "quantity": {
                            "value": 0.36,
                            "units": "ml",
                            "code": "ml",
                            "system": "http://unitsofmeasure.org"
                        },
                        "timingPeriod": {
                            "start": "2012-11-01",
                            "end": "2012-12-31"
                        }
                    }
                ],
                "prescription": {
                    "reference": "MedicationPrescription/35",
                    "display": "Lantus - 36 units once daily before bed"
                },
                "contained": [
                    {
                        "id": "med",
                        "resourceType": "Medication",
                        "name": "Lantus - 36 units once daily before bed",
                        "code": {
                            "coding": [
                                {
                                    "system": "http://www.nlm.nih.gov/research/umls/rxnorm",
                                    "code": "311041",
                                    "display": "Insulin Glargine 100 UNT/ML Injectable Solution"
                                }
                            ],
                            "text": "Insulin Glargine 100 UNT/ML Injectable Solution"
                        }
                    }
                ],
                "medication": {
                    "reference": "#med",
                    "display": "Lantus - 36 units once daily before bed"
                }
            }
        },
        {
            "id": "MedicationPrescription/37",
            "content": {
                "resourceType": "MedicationPrescription",
                "status": "active",
                "dateWritten": "2012-11-01",
                "dosageInstruction": [
                    {
                        "route": {
                            "coding": [
                                {
                                    "system": "urn:oid:2.16.840.1.113883.3.26.1.1",
                                    "code": "C38288",
                                    "display": "oral"
                                }
                            ],
                            "text": "oral"
                        },
                        "doseQuantity": {
                            "value": 1
                        },
                        "timingSchedule": {
                            "event": [
                                {
                                    "start": "2012-11-01"
                                }
                            ],
                            "repeat": {
                                "frequency": 1,
                                "duration": 24,
                                "units": "h",
                                "end": "2012-12-31"
                            }
                        }
                    }
                ],
                "text": {
                    "status": "generated",
                    "div": "gliburide - 2.5mg by mouth once daily"
                },
                "contained": [
                    {
                        "id": "med",
                        "resourceType": "Medication",
                        "name": "gliburide - 2.5mg by mouth once daily",
                        "code": {
                            "coding": [
                                {
                                    "system": "http://www.nlm.nih.gov/research/umls/rxnorm",
                                    "code": "861748",
                                    "display": "glyBURIDE 2.5 MG / metFORMIN hydrochloride 500 MG Oral Tablet"
                                }
                            ],
                            "text": "glyBURIDE 2.5 MG / metFORMIN hydrochloride 500 MG Oral Tablet"
                        }
                    }
                ],
                "medication": {
                    "reference": "#med",
                    "display": "gliburide - 2.5mg by mouth once daily"
                }
            }
        },
        {
            "id": "MedicationAdministration/38",
            "content": {
                "resourceType": "MedicationAdministration",
                "status": "completed",
                "practitioner": {
                    "reference": "Practitioner/unknown",
                    "display": "Unknown"
                },
                "whenGiven": {
                    "start": "2012-11-01",
                    "end": "2012-12-31"
                },
                "dosage": [
                    {
                        "route": {
                            "coding": [
                                {
                                    "system": "urn:oid:2.16.840.1.113883.3.26.1.1",
                                    "code": "C38288",
                                    "display": "oral"
                                }
                            ],
                            "text": "oral"
                        },
                        "quantity": {
                            "value": 1
                        },
                        "timingPeriod": {
                            "start": "2012-11-01",
                            "end": "2012-12-31"
                        }
                    }
                ],
                "prescription": {
                    "reference": "MedicationPrescription/37",
                    "display": "gliburide - 2.5mg by mouth once daily"
                },
                "contained": [
                    {
                        "id": "med",
                        "resourceType": "Medication",
                        "name": "gliburide - 2.5mg by mouth once daily",
                        "code": {
                            "coding": [
                                {
                                    "system": "http://www.nlm.nih.gov/research/umls/rxnorm",
                                    "code": "861748",
                                    "display": "glyBURIDE 2.5 MG / metFORMIN hydrochloride 500 MG Oral Tablet"
                                }
                            ],
                            "text": "glyBURIDE 2.5 MG / metFORMIN hydrochloride 500 MG Oral Tablet"
                        }
                    }
                ],
                "medication": {
                    "reference": "#med",
                    "display": "gliburide - 2.5mg by mouth once daily"
                }
            }
        },
        {
            "id": "MedicationPrescription/39",
            "content": {
                "resourceType": "MedicationPrescription",
                "status": "active",
                "dateWritten": "2012-11-01",
                "dosageInstruction": [
                    {
                        "route": {
                            "coding": [
                                {
                                    "system": "urn:oid:2.16.840.1.113883.3.26.1.1",
                                    "code": "C38288",
                                    "display": "oral"
                                }
                            ],
                            "text": "oral"
                        },
                        "doseQuantity": {
                            "value": 1
                        },
                        "timingSchedule": {
                            "event": [
                                {
                                    "start": "2012-11-01"
                                }
                            ],
                            "repeat": {
                                "frequency": 1,
                                "duration": 24,
                                "units": "h",
                                "end": "2012-12-31"
                            }
                        }
                    }
                ],
                "text": {
                    "status": "generated",
                    "div": "synthroid - 0.1mg by mouth once daily"
                },
                "contained": [
                    {
                        "id": "med",
                        "resourceType": "Medication",
                        "name": "synthroid - 0.1mg by mouth once daily",
                        "code": {
                            "coding": [
                                {
                                    "system": "http://www.nlm.nih.gov/research/umls/rxnorm",
                                    "code": "892246",
                                    "display": "Levothyroxine Sodium 0.1 MG Oral Tablet"
                                }
                            ],
                            "text": "Levothyroxine Sodium 0.1 MG Oral Tablet"
                        }
                    }
                ],
                "medication": {
                    "reference": "#med",
                    "display": "synthroid - 0.1mg by mouth once daily"
                }
            }
        },
        {
            "id": "MedicationAdministration/40",
            "content": {
                "resourceType": "MedicationAdministration",
                "status": "completed",
                "practitioner": {
                    "reference": "Practitioner/unknown",
                    "display": "Unknown"
                },
                "whenGiven": {
                    "start": "2012-11-01",
                    "end": "2012-12-31"
                },
                "dosage": [
                    {
                        "route": {
                            "coding": [
                                {
                                    "system": "urn:oid:2.16.840.1.113883.3.26.1.1",
                                    "code": "C38288",
                                    "display": "oral"
                                }
                            ],
                            "text": "oral"
                        },
                        "quantity": {
                            "value": 1
                        },
                        "timingPeriod": {
                            "start": "2012-11-01",
                            "end": "2012-12-31"
                        }
                    }
                ],
                "prescription": {
                    "reference": "MedicationPrescription/39",
                    "display": "synthroid - 0.1mg by mouth once daily"
                },
                "contained": [
                    {
                        "id": "med",
                        "resourceType": "Medication",
                        "name": "synthroid - 0.1mg by mouth once daily",
                        "code": {
                            "coding": [
                                {
                                    "system": "http://www.nlm.nih.gov/research/umls/rxnorm",
                                    "code": "892246",
                                    "display": "Levothyroxine Sodium 0.1 MG Oral Tablet"
                                }
                            ],
                            "text": "Levothyroxine Sodium 0.1 MG Oral Tablet"
                        }
                    }
                ],
                "medication": {
                    "reference": "#med",
                    "display": "synthroid - 0.1mg by mouth once daily"
                }
            }
        },
        {
            "id": "MedicationPrescription/41",
            "content": {
                "resourceType": "MedicationPrescription",
                "status": "active",
                "dateWritten": "2012-11-01",
                "dosageInstruction": [
                    {
                        "route": {
                            "coding": [
                                {
                                    "system": "urn:oid:2.16.840.1.113883.3.26.1.1",
                                    "code": "C38288",
                                    "display": "oral"
                                }
                            ],
                            "text": "oral"
                        },
                        "doseQuantity": {
                            "value": 1
                        },
                        "timingSchedule": {
                            "event": [
                                {
                                    "start": "2012-11-01"
                                }
                            ],
                            "repeat": {
                                "frequency": 1,
                                "duration": 12,
                                "units": "h",
                                "end": "2012-12-31"
                            }
                        }
                    }
                ],
                "text": {
                    "status": "generated",
                    "div": "Aleve - 220mg by mouth twice daily"
                },
                "contained": [
                    {
                        "id": "med",
                        "resourceType": "Medication",
                        "name": "Aleve - 220mg by mouth twice daily",
                        "code": {
                            "coding": [
                                {
                                    "system": "http://www.nlm.nih.gov/research/umls/rxnorm",
                                    "code": "1112231",
                                    "display": "Naproxen sodium 220 MG Oral Capsule"
                                }
                            ],
                            "text": "Naproxen sodium 220 MG Oral Capsule"
                        }
                    }
                ],
                "medication": {
                    "reference": "#med",
                    "display": "Aleve - 220mg by mouth twice daily"
                }
            }
        },
        {
            "id": "MedicationAdministration/42",
            "content": {
                "resourceType": "MedicationAdministration",
                "status": "completed",
                "practitioner": {
                    "reference": "Practitioner/unknown",
                    "display": "Unknown"
                },
                "whenGiven": {
                    "start": "2012-11-01",
                    "end": "2012-12-31"
                },
                "dosage": [
                    {
                        "route": {
                            "coding": [
                                {
                                    "system": "urn:oid:2.16.840.1.113883.3.26.1.1",
                                    "code": "C38288",
                                    "display": "oral"
                                }
                            ],
                            "text": "oral"
                        },
                        "quantity": {
                            "value": 1
                        },
                        "timingPeriod": {
                            "start": "2012-11-01",
                            "end": "2012-12-31"
                        }
                    }
                ],
                "prescription": {
                    "reference": "MedicationPrescription/41",
                    "display": "Aleve - 220mg by mouth twice daily"
                },
                "contained": [
                    {
                        "id": "med",
                        "resourceType": "Medication",
                        "name": "Aleve - 220mg by mouth twice daily",
                        "code": {
                            "coding": [
                                {
                                    "system": "http://www.nlm.nih.gov/research/umls/rxnorm",
                                    "code": "1112231",
                                    "display": "Naproxen sodium 220 MG Oral Capsule"
                                }
                            ],
                            "text": "Naproxen sodium 220 MG Oral Capsule"
                        }
                    }
                ],
                "medication": {
                    "reference": "#med",
                    "display": "Aleve - 220mg by mouth twice daily"
                }
            }
        },
        {
            "id": "MedicationPrescription/43",
            "content": {
                "resourceType": "MedicationPrescription",
                "status": "active",
                "dateWritten": "2012-11-01",
                "dosageInstruction": [
                    {
                        "route": {
                            "coding": [
                                {
                                    "system": "urn:oid:2.16.840.1.113883.3.26.1.1",
                                    "code": "C38288",
                                    "display": "oral"
                                }
                            ],
                            "text": "oral"
                        },
                        "doseQuantity": {
                            "value": 1
                        },
                        "timingSchedule": {
                            "event": [
                                {
                                    "start": "2012-11-01"
                                }
                            ],
                            "repeat": {
                                "frequency": 1,
                                "duration": 6,
                                "units": "h",
                                "end": "2012-12-31"
                            }
                        }
                    }
                ],
                "text": {
                    "status": "generated",
                    "div": "Ultram - 50mg by mouth four times daily as needed for joint pain"
                },
                "contained": [
                    {
                        "id": "med",
                        "resourceType": "Medication",
                        "name": "Ultram - 50mg by mouth four times daily as needed for joint pain",
                        "code": {
                            "coding": [
                                {
                                    "system": "http://www.nlm.nih.gov/research/umls/rxnorm",
                                    "code": "835603",
                                    "display": "traMADol hydrochloride 50 MG Oral Tablet"
                                }
                            ],
                            "text": "traMADol hydrochloride 50 MG Oral Tablet"
                        }
                    }
                ],
                "medication": {
                    "reference": "#med",
                    "display": "Ultram - 50mg by mouth four times daily as needed for joint pain"
                }
            }
        },
        {
            "id": "MedicationAdministration/44",
            "content": {
                "resourceType": "MedicationAdministration",
                "status": "completed",
                "practitioner": {
                    "reference": "Practitioner/unknown",
                    "display": "Unknown"
                },
                "whenGiven": {
                    "start": "2012-11-01",
                    "end": "2012-12-31"
                },
                "dosage": [
                    {
                        "route": {
                            "coding": [
                                {
                                    "system": "urn:oid:2.16.840.1.113883.3.26.1.1",
                                    "code": "C38288",
                                    "display": "oral"
                                }
                            ],
                            "text": "oral"
                        },
                        "quantity": {
                            "value": 1
                        },
                        "timingPeriod": {
                            "start": "2012-11-01",
                            "end": "2012-12-31"
                        }
                    }
                ],
                "prescription": {
                    "reference": "MedicationPrescription/43",
                    "display": "Ultram - 50mg by mouth four times daily as needed for joint pain"
                },
                "contained": [
                    {
                        "id": "med",
                        "resourceType": "Medication",
                        "name": "Ultram - 50mg by mouth four times daily as needed for joint pain",
                        "code": {
                            "coding": [
                                {
                                    "system": "http://www.nlm.nih.gov/research/umls/rxnorm",
                                    "code": "835603",
                                    "display": "traMADol hydrochloride 50 MG Oral Tablet"
                                }
                            ],
                            "text": "traMADol hydrochloride 50 MG Oral Tablet"
                        }
                    }
                ],
                "medication": {
                    "reference": "#med",
                    "display": "Ultram - 50mg by mouth four times daily as needed for joint pain"
                }
            }
        },
        {
            "id": "MedicationPrescription/45",
            "content": {
                "resourceType": "MedicationPrescription",
                "status": "active",
                "dateWritten": "2012-11-01",
                "dosageInstruction": [
                    {
                        "route": {
                            "coding": [
                                {
                                    "system": "urn:oid:2.16.840.1.113883.3.26.1.1",
                                    "code": "C38288",
                                    "display": "oral"
                                }
                            ],
                            "text": "oral"
                        },
                        "doseQuantity": {
                            "value": 1
                        },
                        "timingSchedule": {
                            "event": [
                                {
                                    "start": "2012-11-01"
                                }
                            ],
                            "repeat": {
                                "frequency": 1,
                                "duration": 24,
                                "units": "h",
                                "end": "2012-12-31"
                            }
                        }
                    }
                ],
                "text": {
                    "status": "generated",
                    "div": "Aspirin - 81mg by mouth once daily"
                },
                "contained": [
                    {
                        "id": "med",
                        "resourceType": "Medication",
                        "name": "Aspirin - 81mg by mouth once daily",
                        "code": {
                            "coding": [
                                {
                                    "system": "http://www.nlm.nih.gov/research/umls/rxnorm",
                                    "code": "308416",
                                    "display": "Aspirin 81 MG Enteric Coated Tablet"
                                }
                            ],
                            "text": "Aspirin 81 MG Enteric Coated Tablet"
                        }
                    }
                ],
                "medication": {
                    "reference": "#med",
                    "display": "Aspirin - 81mg by mouth once daily"
                }
            }
        },
        {
            "id": "MedicationAdministration/46",
            "content": {
                "resourceType": "MedicationAdministration",
                "status": "completed",
                "practitioner": {
                    "reference": "Practitioner/unknown",
                    "display": "Unknown"
                },
                "whenGiven": {
                    "start": "2012-11-01",
                    "end": "2012-12-31"
                },
                "dosage": [
                    {
                        "route": {
                            "coding": [
                                {
                                    "system": "urn:oid:2.16.840.1.113883.3.26.1.1",
                                    "code": "C38288",
                                    "display": "oral"
                                }
                            ],
                            "text": "oral"
                        },
                        "quantity": {
                            "value": 1
                        },
                        "timingPeriod": {
                            "start": "2012-11-01",
                            "end": "2012-12-31"
                        }
                    }
                ],
                "prescription": {
                    "reference": "MedicationPrescription/45",
                    "display": "Aspirin - 81mg by mouth once daily"
                },
                "contained": [
                    {
                        "id": "med",
                        "resourceType": "Medication",
                        "name": "Aspirin - 81mg by mouth once daily",
                        "code": {
                            "coding": [
                                {
                                    "system": "http://www.nlm.nih.gov/research/umls/rxnorm",
                                    "code": "308416",
                                    "display": "Aspirin 81 MG Enteric Coated Tablet"
                                }
                            ],
                            "text": "Aspirin 81 MG Enteric Coated Tablet"
                        }
                    }
                ],
                "medication": {
                    "reference": "#med",
                    "display": "Aspirin - 81mg by mouth once daily"
                }
            }
        },
        {
            "id": "MedicationPrescription/47",
            "content": {
                "resourceType": "MedicationPrescription",
                "status": "active",
                "dateWritten": "2012-11-01",
                "dosageInstruction": [
                    {
                        "route": {
                            "coding": [
                                {
                                    "system": "urn:oid:2.16.840.1.113883.3.26.1.1",
                                    "code": "C38288",
                                    "display": "oral"
                                }
                            ],
                            "text": "oral"
                        },
                        "doseQuantity": {
                            "value": 1
                        },
                        "timingSchedule": {
                            "event": [
                                {
                                    "start": "2012-11-01"
                                }
                            ],
                            "repeat": {
                                "frequency": 1,
                                "duration": 12,
                                "units": "h",
                                "end": "2012-12-31"
                            }
                        }
                    }
                ],
                "text": {
                    "status": "generated",
                    "div": "Lopressor - 50mg by mouth twice daily"
                },
                "contained": [
                    {
                        "id": "med",
                        "resourceType": "Medication",
                        "name": "Lopressor - 50mg by mouth twice daily",
                        "code": {
                            "coding": [
                                {
                                    "system": "http://www.nlm.nih.gov/research/umls/rxnorm",
                                    "code": "866514",
                                    "display": "Metoprolol Tartrate 50 MG Oral Tablet"
                                }
                            ],
                            "text": "Metoprolol Tartrate 50 MG Oral Tablet"
                        }
                    }
                ],
                "medication": {
                    "reference": "#med",
                    "display": "Lopressor - 50mg by mouth twice daily"
                }
            }
        },
        {
            "id": "MedicationAdministration/48",
            "content": {
                "resourceType": "MedicationAdministration",
                "status": "completed",
                "practitioner": {
                    "reference": "Practitioner/unknown",
                    "display": "Unknown"
                },
                "whenGiven": {
                    "start": "2012-11-01",
                    "end": "2012-12-31"
                },
                "dosage": [
                    {
                        "route": {
                            "coding": [
                                {
                                    "system": "urn:oid:2.16.840.1.113883.3.26.1.1",
                                    "code": "C38288",
                                    "display": "oral"
                                }
                            ],
                            "text": "oral"
                        },
                        "quantity": {
                            "value": 1
                        },
                        "timingPeriod": {
                            "start": "2012-11-01",
                            "end": "2012-12-31"
                        }
                    }
                ],
                "prescription": {
                    "reference": "MedicationPrescription/47",
                    "display": "Lopressor - 50mg by mouth twice daily"
                },
                "contained": [
                    {
                        "id": "med",
                        "resourceType": "Medication",
                        "name": "Lopressor - 50mg by mouth twice daily",
                        "code": {
                            "coding": [
                                {
                                    "system": "http://www.nlm.nih.gov/research/umls/rxnorm",
                                    "code": "866514",
                                    "display": "Metoprolol Tartrate 50 MG Oral Tablet"
                                }
                            ],
                            "text": "Metoprolol Tartrate 50 MG Oral Tablet"
                        }
                    }
                ],
                "medication": {
                    "reference": "#med",
                    "display": "Lopressor - 50mg by mouth twice daily"
                }
            }
        },
        {
            "id": "MedicationPrescription/49",
            "content": {
                "resourceType": "MedicationPrescription",
                "status": "active",
                "dateWritten": "2012-11-01",
                "dosageInstruction": [
                    {
                        "route": {
                            "coding": [
                                {
                                    "system": "urn:oid:2.16.840.1.113883.3.26.1.1",
                                    "code": "C38288",
                                    "display": "oral"
                                }
                            ],
                            "text": "oral"
                        },
                        "doseQuantity": {
                            "value": 1
                        },
                        "timingSchedule": {
                            "event": [
                                {
                                    "start": "2012-11-01"
                                }
                            ],
                            "repeat": {
                                "frequency": 1,
                                "duration": 24,
                                "units": "h",
                                "end": "2012-12-31"
                            }
                        }
                    }
                ],
                "text": {
                    "status": "generated",
                    "div": "Flomax - 0.4mg by mouth once daily"
                },
                "contained": [
                    {
                        "id": "med",
                        "resourceType": "Medication",
                        "name": "Flomax - 0.4mg by mouth once daily",
                        "code": {
                            "coding": [
                                {
                                    "system": "http://www.nlm.nih.gov/research/umls/rxnorm",
                                    "code": "863671",
                                    "display": "Flomax 0.4 MG Oral Capsule"
                                }
                            ],
                            "text": "Flomax 0.4 MG Oral Capsule"
                        }
                    }
                ],
                "medication": {
                    "reference": "#med",
                    "display": "Flomax - 0.4mg by mouth once daily"
                }
            }
        },
        {
            "id": "MedicationAdministration/50",
            "content": {
                "resourceType": "MedicationAdministration",
                "status": "completed",
                "practitioner": {
                    "reference": "Practitioner/unknown",
                    "display": "Unknown"
                },
                "whenGiven": {
                    "start": "2012-11-01",
                    "end": "2012-12-31"
                },
                "dosage": [
                    {
                        "route": {
                            "coding": [
                                {
                                    "system": "urn:oid:2.16.840.1.113883.3.26.1.1",
                                    "code": "C38288",
                                    "display": "oral"
                                }
                            ],
                            "text": "oral"
                        },
                        "quantity": {
                            "value": 1
                        },
                        "timingPeriod": {
                            "start": "2012-11-01",
                            "end": "2012-12-31"
                        }
                    }
                ],
                "prescription": {
                    "reference": "MedicationPrescription/49",
                    "display": "Flomax - 0.4mg by mouth once daily"
                },
                "contained": [
                    {
                        "id": "med",
                        "resourceType": "Medication",
                        "name": "Flomax - 0.4mg by mouth once daily",
                        "code": {
                            "coding": [
                                {
                                    "system": "http://www.nlm.nih.gov/research/umls/rxnorm",
                                    "code": "863671",
                                    "display": "Flomax 0.4 MG Oral Capsule"
                                }
                            ],
                            "text": "Flomax 0.4 MG Oral Capsule"
                        }
                    }
                ],
                "medication": {
                    "reference": "#med",
                    "display": "Flomax - 0.4mg by mouth once daily"
                }
            }
        },
        {
            "id": "MedicationPrescription/51",
            "content": {
                "resourceType": "MedicationPrescription",
                "status": "active",
                "dateWritten": "2012-11-01",
                "dosageInstruction": [
                    {
                        "route": {
                            "coding": [
                                {
                                    "system": "urn:oid:2.16.840.1.113883.3.26.1.1",
                                    "code": "C38288",
                                    "display": "oral"
                                }
                            ],
                            "text": "oral"
                        },
                        "doseQuantity": {
                            "value": 1
                        },
                        "timingSchedule": {
                            "event": [
                                {
                                    "start": "2012-11-01"
                                }
                            ],
                            "repeat": {
                                "frequency": 1,
                                "duration": 24,
                                "units": "h",
                                "end": "2012-12-31"
                            }
                        }
                    }
                ],
                "text": {
                    "status": "generated",
                    "div": "Proscar - 5mg by mouth once daily"
                },
                "contained": [
                    {
                        "id": "med",
                        "resourceType": "Medication",
                        "name": "Proscar - 5mg by mouth once daily",
                        "code": {
                            "coding": [
                                {
                                    "system": "http://www.nlm.nih.gov/research/umls/rxnorm",
                                    "code": "201961",
                                    "display": "Proscar 5 MG Oral Tablet"
                                }
                            ],
                            "text": "Proscar 5 MG Oral Tablet"
                        }
                    }
                ],
                "medication": {
                    "reference": "#med",
                    "display": "Proscar - 5mg by mouth once daily"
                }
            }
        },
        {
            "id": "MedicationAdministration/52",
            "content": {
                "resourceType": "MedicationAdministration",
                "status": "completed",
                "practitioner": {
                    "reference": "Practitioner/unknown",
                    "display": "Unknown"
                },
                "whenGiven": {
                    "start": "2012-11-01",
                    "end": "2012-12-31"
                },
                "dosage": [
                    {
                        "route": {
                            "coding": [
                                {
                                    "system": "urn:oid:2.16.840.1.113883.3.26.1.1",
                                    "code": "C38288",
                                    "display": "oral"
                                }
                            ],
                            "text": "oral"
                        },
                        "quantity": {
                            "value": 1
                        },
                        "timingPeriod": {
                            "start": "2012-11-01",
                            "end": "2012-12-31"
                        }
                    }
                ],
                "prescription": {
                    "reference": "MedicationPrescription/51",
                    "display": "Proscar - 5mg by mouth once daily"
                },
                "contained": [
                    {
                        "id": "med",
                        "resourceType": "Medication",
                        "name": "Proscar - 5mg by mouth once daily",
                        "code": {
                            "coding": [
                                {
                                    "system": "http://www.nlm.nih.gov/research/umls/rxnorm",
                                    "code": "201961",
                                    "display": "Proscar 5 MG Oral Tablet"
                                }
                            ],
                            "text": "Proscar 5 MG Oral Tablet"
                        }
                    }
                ],
                "medication": {
                    "reference": "#med",
                    "display": "Proscar - 5mg by mouth once daily"
                }
            }
        },
        {
            "id": "MedicationPrescription/53",
            "content": {
                "resourceType": "MedicationPrescription",
                "status": "active",
                "dateWritten": "2012-11-01",
                "dosageInstruction": [
                    {
                        "route": {
                            "coding": [
                                {
                                    "system": "urn:oid:2.16.840.1.113883.3.26.1.1",
                                    "code": "C38288",
                                    "display": "oral"
                                }
                            ],
                            "text": "oral"
                        },
                        "doseQuantity": {
                            "value": 1
                        },
                        "timingSchedule": {
                            "event": [
                                {
                                    "start": "2012-11-01"
                                }
                            ],
                            "repeat": {
                                "frequency": 1,
                                "duration": 8,
                                "units": "h",
                                "end": "2012-12-31"
                            }
                        }
                    }
                ],
                "text": {
                    "status": "generated",
                    "div": "Neurontin - 300mg by mouth three times daily"
                },
                "contained": [
                    {
                        "id": "med",
                        "resourceType": "Medication",
                        "name": "Neurontin - 300mg by mouth three times daily",
                        "code": {
                            "coding": [
                                {
                                    "system": "http://www.nlm.nih.gov/research/umls/rxnorm",
                                    "code": "105029",
                                    "display": "Neurontin 300 MG Oral Capsule"
                                }
                            ],
                            "text": "Neurontin 300 MG Oral Capsule"
                        }
                    }
                ],
                "medication": {
                    "reference": "#med",
                    "display": "Neurontin - 300mg by mouth three times daily"
                }
            }
        },
        {
            "id": "MedicationAdministration/54",
            "content": {
                "resourceType": "MedicationAdministration",
                "status": "completed",
                "practitioner": {
                    "reference": "Practitioner/unknown",
                    "display": "Unknown"
                },
                "whenGiven": {
                    "start": "2012-11-01",
                    "end": "2012-12-31"
                },
                "dosage": [
                    {
                        "route": {
                            "coding": [
                                {
                                    "system": "urn:oid:2.16.840.1.113883.3.26.1.1",
                                    "code": "C38288",
                                    "display": "oral"
                                }
                            ],
                            "text": "oral"
                        },
                        "quantity": {
                            "value": 1
                        },
                        "timingPeriod": {
                            "start": "2012-11-01",
                            "end": "2012-12-31"
                        }
                    }
                ],
                "prescription": {
                    "reference": "MedicationPrescription/53",
                    "display": "Neurontin - 300mg by mouth three times daily"
                },
                "contained": [
                    {
                        "id": "med",
                        "resourceType": "Medication",
                        "name": "Neurontin - 300mg by mouth three times daily",
                        "code": {
                            "coding": [
                                {
                                    "system": "http://www.nlm.nih.gov/research/umls/rxnorm",
                                    "code": "105029",
                                    "display": "Neurontin 300 MG Oral Capsule"
                                }
                            ],
                            "text": "Neurontin 300 MG Oral Capsule"
                        }
                    }
                ],
                "medication": {
                    "reference": "#med",
                    "display": "Neurontin - 300mg by mouth three times daily"
                }
            }
        },
        {
            "id": "MedicationPrescription/55",
            "content": {
                "resourceType": "MedicationPrescription",
                "status": "active",
                "dateWritten": "2012-11-01",
                "dosageInstruction": [
                    {
                        "route": {
                            "coding": [
                                {
                                    "system": "urn:oid:2.16.840.1.113883.3.26.1.1",
                                    "code": "C38288",
                                    "display": "oral"
                                }
                            ],
                            "text": "oral"
                        },
                        "doseQuantity": {
                            "value": 1
                        },
                        "timingSchedule": {
                            "event": [
                                {
                                    "start": "2012-11-01"
                                }
                            ],
                            "repeat": {
                                "frequency": 1,
                                "duration": 8,
                                "units": "h",
                                "end": "2012-12-31"
                            }
                        }
                    }
                ],
                "text": {
                    "status": "generated",
                    "div": "Ativan - 1mg by mouth three times daily as needed for irritability"
                },
                "contained": [
                    {
                        "id": "med",
                        "resourceType": "Medication",
                        "name": "Ativan - 1mg by mouth three times daily as needed for irritability",
                        "code": {
                            "coding": [
                                {
                                    "system": "http://www.nlm.nih.gov/research/umls/rxnorm",
                                    "code": "197900",
                                    "display": "Lorazepam 0.5 MG Oral Tablet"
                                }
                            ],
                            "text": "Lorazepam 0.5 MG Oral Tablet"
                        }
                    }
                ],
                "medication": {
                    "reference": "#med",
                    "display": "Ativan - 1mg by mouth three times daily as needed for irritability"
                }
            }
        },
        {
            "id": "MedicationAdministration/56",
            "content": {
                "resourceType": "MedicationAdministration",
                "status": "completed",
                "practitioner": {
                    "reference": "Practitioner/unknown",
                    "display": "Unknown"
                },
                "whenGiven": {
                    "start": "2012-11-01",
                    "end": "2012-12-31"
                },
                "dosage": [
                    {
                        "route": {
                            "coding": [
                                {
                                    "system": "urn:oid:2.16.840.1.113883.3.26.1.1",
                                    "code": "C38288",
                                    "display": "oral"
                                }
                            ],
                            "text": "oral"
                        },
                        "quantity": {
                            "value": 1
                        },
                        "timingPeriod": {
                            "start": "2012-11-01",
                            "end": "2012-12-31"
                        }
                    }
                ],
                "prescription": {
                    "reference": "MedicationPrescription/55",
                    "display": "Ativan - 1mg by mouth three times daily as needed for irritability"
                },
                "contained": [
                    {
                        "id": "med",
                        "resourceType": "Medication",
                        "name": "Ativan - 1mg by mouth three times daily as needed for irritability",
                        "code": {
                            "coding": [
                                {
                                    "system": "http://www.nlm.nih.gov/research/umls/rxnorm",
                                    "code": "197900",
                                    "display": "Lorazepam 0.5 MG Oral Tablet"
                                }
                            ],
                            "text": "Lorazepam 0.5 MG Oral Tablet"
                        }
                    }
                ],
                "medication": {
                    "reference": "#med",
                    "display": "Ativan - 1mg by mouth three times daily as needed for irritability"
                }
            }
        },
        {
            "id": "MedicationPrescription/57",
            "content": {
                "resourceType": "MedicationPrescription",
                "status": "active",
                "dateWritten": "2012-11-01",
                "dosageInstruction": [
                    {
                        "route": {
                            "coding": [
                                {
                                    "system": "urn:oid:2.16.840.1.113883.3.26.1.1",
                                    "code": "C38288",
                                    "display": "oral"
                                }
                            ],
                            "text": "oral"
                        },
                        "doseQuantity": {
                            "value": 1
                        },
                        "timingSchedule": {
                            "event": [
                                {
                                    "start": "2012-11-01"
                                }
                            ],
                            "repeat": {
                                "frequency": 1,
                                "duration": 12,
                                "units": "h",
                                "end": "2012-12-31"
                            }
                        }
                    }
                ],
                "text": {
                    "status": "generated",
                    "div": "miodarone - 200mg by mouth two times daily"
                },
                "contained": [
                    {
                        "id": "med",
                        "resourceType": "Medication",
                        "name": "miodarone - 200mg by mouth two times daily",
                        "code": {
                            "coding": [
                                {
                                    "system": "http://www.nlm.nih.gov/research/umls/rxnorm",
                                    "code": "833530",
                                    "display": "Cordarone 200 MG Oral Tablet"
                                }
                            ],
                            "text": "Cordarone 200 MG Oral Tablet"
                        }
                    }
                ],
                "medication": {
                    "reference": "#med",
                    "display": "miodarone - 200mg by mouth two times daily"
                }
            }
        },
        {
            "id": "MedicationAdministration/58",
            "content": {
                "resourceType": "MedicationAdministration",
                "status": "completed",
                "practitioner": {
                    "reference": "Practitioner/unknown",
                    "display": "Unknown"
                },
                "whenGiven": {
                    "start": "2012-11-01",
                    "end": "2012-12-31"
                },
                "dosage": [
                    {
                        "route": {
                            "coding": [
                                {
                                    "system": "urn:oid:2.16.840.1.113883.3.26.1.1",
                                    "code": "C38288",
                                    "display": "oral"
                                }
                            ],
                            "text": "oral"
                        },
                        "quantity": {
                            "value": 1
                        },
                        "timingPeriod": {
                            "start": "2012-11-01",
                            "end": "2012-12-31"
                        }
                    }
                ],
                "prescription": {
                    "reference": "MedicationPrescription/57",
                    "display": "miodarone - 200mg by mouth two times daily"
                },
                "contained": [
                    {
                        "id": "med",
                        "resourceType": "Medication",
                        "name": "miodarone - 200mg by mouth two times daily",
                        "code": {
                            "coding": [
                                {
                                    "system": "http://www.nlm.nih.gov/research/umls/rxnorm",
                                    "code": "833530",
                                    "display": "Cordarone 200 MG Oral Tablet"
                                }
                            ],
                            "text": "Cordarone 200 MG Oral Tablet"
                        }
                    }
                ],
                "medication": {
                    "reference": "#med",
                    "display": "miodarone - 200mg by mouth two times daily"
                }
            }
        },
        {
            "id": "MedicationPrescription/59",
            "content": {
                "resourceType": "MedicationPrescription",
                "status": "active",
                "dateWritten": "2012-11-01",
                "dosageInstruction": [
                    {
                        "route": {
                            "coding": [
                                {
                                    "system": "urn:oid:2.16.840.1.113883.3.26.1.1",
                                    "code": "C38288",
                                    "display": "oral"
                                }
                            ],
                            "text": "oral"
                        },
                        "doseQuantity": {
                            "value": 1
                        },
                        "timingSchedule": {
                            "event": [
                                {
                                    "start": "2012-11-01"
                                }
                            ],
                            "repeat": {
                                "frequency": 1,
                                "duration": 2,
                                "units": "d",
                                "end": "2012-12-31"
                            }
                        }
                    }
                ],
                "text": {
                    "status": "generated",
                    "div": "Coumadin - 5mg by mouth every other day starting 11/1/2012"
                },
                "contained": [
                    {
                        "id": "med",
                        "resourceType": "Medication",
                        "name": "Coumadin - 5mg by mouth every other day starting 11/1/2012",
                        "code": {
                            "coding": [
                                {
                                    "system": "http://www.nlm.nih.gov/research/umls/rxnorm",
                                    "code": "855332",
                                    "display": "Warfarin Sodium 5 MG Oral Tablet"
                                }
                            ],
                            "text": "Warfarin Sodium 5 MG Oral Tablet"
                        }
                    }
                ],
                "medication": {
                    "reference": "#med",
                    "display": "Coumadin - 5mg by mouth every other day starting 11/1/2012"
                }
            }
        },
        {
            "id": "MedicationAdministration/60",
            "content": {
                "resourceType": "MedicationAdministration",
                "status": "completed",
                "practitioner": {
                    "reference": "Practitioner/unknown",
                    "display": "Unknown"
                },
                "whenGiven": {
                    "start": "2012-11-01",
                    "end": "2012-12-31"
                },
                "dosage": [
                    {
                        "route": {
                            "coding": [
                                {
                                    "system": "urn:oid:2.16.840.1.113883.3.26.1.1",
                                    "code": "C38288",
                                    "display": "oral"
                                }
                            ],
                            "text": "oral"
                        },
                        "quantity": {
                            "value": 1
                        },
                        "timingPeriod": {
                            "start": "2012-11-01",
                            "end": "2012-12-31"
                        }
                    }
                ],
                "prescription": {
                    "reference": "MedicationPrescription/59",
                    "display": "Coumadin - 5mg by mouth every other day starting 11/1/2012"
                },
                "contained": [
                    {
                        "id": "med",
                        "resourceType": "Medication",
                        "name": "Coumadin - 5mg by mouth every other day starting 11/1/2012",
                        "code": {
                            "coding": [
                                {
                                    "system": "http://www.nlm.nih.gov/research/umls/rxnorm",
                                    "code": "855332",
                                    "display": "Warfarin Sodium 5 MG Oral Tablet"
                                }
                            ],
                            "text": "Warfarin Sodium 5 MG Oral Tablet"
                        }
                    }
                ],
                "medication": {
                    "reference": "#med",
                    "display": "Coumadin - 5mg by mouth every other day starting 11/1/2012"
                }
            }
        },
        {
            "id": "MedicationPrescription/61",
            "content": {
                "resourceType": "MedicationPrescription",
                "status": "active",
                "dateWritten": "2012-11-01",
                "dosageInstruction": [
                    {
                        "route": {
                            "coding": [
                                {
                                    "system": "urn:oid:2.16.840.1.113883.3.26.1.1",
                                    "code": "C38288",
                                    "display": "oral"
                                }
                            ],
                            "text": "oral"
                        },
                        "doseQuantity": {
                            "value": 1
                        },
                        "timingSchedule": {
                            "event": [
                                {
                                    "start": "2012-11-01"
                                }
                            ],
                            "repeat": {
                                "frequency": 1,
                                "duration": 2,
                                "units": "d",
                                "end": "2012-12-31"
                            }
                        }
                    }
                ],
                "text": {
                    "status": "generated",
                    "div": "Coumadin - 2.5mg by mouth every other day starting 11/2/2012"
                },
                "contained": [
                    {
                        "id": "med",
                        "resourceType": "Medication",
                        "name": "Coumadin - 2.5mg by mouth every other day starting 11/2/2012",
                        "code": {
                            "coding": [
                                {
                                    "system": "http://www.nlm.nih.gov/research/umls/rxnorm",
                                    "code": "855312",
                                    "display": "Warfarin Sodium 2.5 MG Oral Tablet"
                                }
                            ],
                            "text": "Warfarin Sodium 2.5 MG Oral Tablet"
                        }
                    }
                ],
                "medication": {
                    "reference": "#med",
                    "display": "Coumadin - 2.5mg by mouth every other day starting 11/2/2012"
                }
            }
        },
        {
            "id": "MedicationAdministration/62",
            "content": {
                "resourceType": "MedicationAdministration",
                "status": "completed",
                "practitioner": {
                    "reference": "Practitioner/unknown",
                    "display": "Unknown"
                },
                "whenGiven": {
                    "start": "2012-11-01",
                    "end": "2012-12-31"
                },
                "dosage": [
                    {
                        "route": {
                            "coding": [
                                {
                                    "system": "urn:oid:2.16.840.1.113883.3.26.1.1",
                                    "code": "C38288",
                                    "display": "oral"
                                }
                            ],
                            "text": "oral"
                        },
                        "quantity": {
                            "value": 1
                        },
                        "timingPeriod": {
                            "start": "2012-11-01",
                            "end": "2012-12-31"
                        }
                    }
                ],
                "prescription": {
                    "reference": "MedicationPrescription/61",
                    "display": "Coumadin - 2.5mg by mouth every other day starting 11/2/2012"
                },
                "contained": [
                    {
                        "id": "med",
                        "resourceType": "Medication",
                        "name": "Coumadin - 2.5mg by mouth every other day starting 11/2/2012",
                        "code": {
                            "coding": [
                                {
                                    "system": "http://www.nlm.nih.gov/research/umls/rxnorm",
                                    "code": "855312",
                                    "display": "Warfarin Sodium 2.5 MG Oral Tablet"
                                }
                            ],
                            "text": "Warfarin Sodium 2.5 MG Oral Tablet"
                        }
                    }
                ],
                "medication": {
                    "reference": "#med",
                    "display": "Coumadin - 2.5mg by mouth every other day starting 11/2/2012"
                }
            }
        },
        {
            "id": "MedicationPrescription/63",
            "content": {
                "resourceType": "MedicationPrescription",
                "status": "active",
                "dateWritten": "2012-11-01",
                "dosageInstruction": [
                    {
                        "route": {
                            "coding": [
                                {
                                    "system": "urn:oid:2.16.840.1.113883.3.26.1.1",
                                    "code": "C38288",
                                    "display": "oral"
                                }
                            ],
                            "text": "oral"
                        },
                        "doseQuantity": {
                            "value": 1
                        },
                        "timingSchedule": {
                            "event": [
                                {
                                    "start": "2012-11-01"
                                }
                            ],
                            "repeat": {
                                "when": "HS",
                                "end": "2012-12-31",
                                "duration": 1,
                                "units": "s"
                            }
                        }
                    }
                ],
                "text": {
                    "status": "generated",
                    "div": "Ambien - 5mg by mouth once daily before bed"
                },
                "contained": [
                    {
                        "id": "med",
                        "resourceType": "Medication",
                        "name": "Ambien - 5mg by mouth once daily before bed",
                        "code": {
                            "coding": [
                                {
                                    "system": "http://www.nlm.nih.gov/research/umls/rxnorm",
                                    "code": "854878",
                                    "display": "Ambien 5 MG Oral Tablet"
                                }
                            ],
                            "text": "Ambien 5 MG Oral Tablet"
                        }
                    }
                ],
                "medication": {
                    "reference": "#med",
                    "display": "Ambien - 5mg by mouth once daily before bed"
                }
            }
        },
        {
            "id": "MedicationAdministration/64",
            "content": {
                "resourceType": "MedicationAdministration",
                "status": "completed",
                "practitioner": {
                    "reference": "Practitioner/unknown",
                    "display": "Unknown"
                },
                "whenGiven": {
                    "start": "2012-11-01",
                    "end": "2012-12-31"
                },
                "dosage": [
                    {
                        "route": {
                            "coding": [
                                {
                                    "system": "urn:oid:2.16.840.1.113883.3.26.1.1",
                                    "code": "C38288",
                                    "display": "oral"
                                }
                            ],
                            "text": "oral"
                        },
                        "quantity": {
                            "value": 1
                        },
                        "timingPeriod": {
                            "start": "2012-11-01",
                            "end": "2012-12-31"
                        }
                    }
                ],
                "prescription": {
                    "reference": "MedicationPrescription/63",
                    "display": "Ambien - 5mg by mouth once daily before bed"
                },
                "contained": [
                    {
                        "id": "med",
                        "resourceType": "Medication",
                        "name": "Ambien - 5mg by mouth once daily before bed",
                        "code": {
                            "coding": [
                                {
                                    "system": "http://www.nlm.nih.gov/research/umls/rxnorm",
                                    "code": "854878",
                                    "display": "Ambien 5 MG Oral Tablet"
                                }
                            ],
                            "text": "Ambien 5 MG Oral Tablet"
                        }
                    }
                ],
                "medication": {
                    "reference": "#med",
                    "display": "Ambien - 5mg by mouth once daily before bed"
                }
            }
        }
    ]
}