{
    "resourceType": "Bundle",
    "entry": [
        {
            "resource": {
                "id": "Patient/0",
                "resourceType": "Patient",
                "identifier": [
                    {
                        "system": "urn:oid:2.16.840.1.113883.4.1",
                        "value": "123-456-7890"
                    }
                ],
                "name": {
                    "family": [
                        "Bellic"
                    ],
                    "given": [
                        "Nikolai",
                        null
                    ]
                },
                "telecom": [
                    {
                        "system": "phone",
                        "value": "+1(571)555-0189",
                        "use": "home"
                    }
                ],
                "gender": {
                    "coding": [
                        {
                            "system": "http://hl7.org/fhir/v3/AdministrativeGender",
                            "code": "M",
                            "display": "Male"
                        }
                    ],
                    "text": "Male"
                },
                "birthdate": "1933-03-16",
                "address": [
                    {
                        "use": "home",
                        "line": [
                            "100 Marshall Lane"
                        ],
                        "city": "Springfield",
                        "state": "VA",
                        "zip": "22153",
                        "country": "US"
                    }
                ],
                "maritalStatus": {
                    "coding": [
                        {
                            "system": "http://hl7.org/fhir/v3/MaritalStatus",
                            "code": "M",
                            "display": "Married"
                        }
                    ],
                    "text": "Married"
                },
                "extension": [
                    {
                        "url": "http://hl7.org/fhir/StructureDefinition/us-core-religion",
                        "valueCodeableConcept": {
                            "coding": [
                                {
                                    "system": "http://hl7.org/fhir/v3/vs/ReligiousAffiliation",
                                    "code": "1041",
                                    "display": "Roman Catholic Church"
                                }
                            ]
                        }
                    },
                    {
                        "url": "http://hl7.org/fhir/Profile/us-core#race",
                        "valueCodeableConcept": {
                            "coding": [
                                {
                                    "system": "http://hl7.org/fhir/v3/Race",
                                    "code": "2106-3",
                                    "display": "White"
                                }
                            ]
                        }
                    },
                    {
                        "url": "http://hl7.org/fhir/Profile/us-core#ethnicity",
                        "valueCodeableConcept": {
                            "coding": [
                                {
                                    "system": "http://hl7.org/fhir/v3/Ethnicity",
                                    "code": "2186-5",
                                    "display": "Not Hispanic or Latino"
                                }
                            ]
                        }
                    }
                ]
            }
        },
        {
            "resource": {
                "id": "AdverseReaction/1",
                "resourceType": "AdverseReaction",
                "symptom": [
                    {
                        "severity": "moderate",
                        "code": {
                            "coding": [
                                {
                                    "system": "http://snomed.info/sct",
                                    "code": "404640003",
                                    "display": "Dizziness"
                                }
                            ],
                            "text": "Dizziness"
                        }
                    }
                ],
                "didNotOccurFlag": false,
                "subject": {
                    "reference": "Patient/0",
                    "display": ", "
                }
            }
        },
        {
            "resource": {
                "id": "AllergyIntolerance/2",
                "resourceType": "AllergyIntolerance",
                "sensitivityType": "allergy",
                "recordedDate": "1960-01-01",
                "status": "confirmed",
                "contained": [
                    {
                        "id": "allergen",
                        "resourceType": "Substance",
                        "type": {
                            "coding": [
                                {
                                    "system": "http://www.nlm.nih.gov/research/umls/rxnorm",
                                    "code": "70618",
                                    "display": "Penicillin"
                                }
                            ],
                            "text": "Penicillin"
                        }
                    }
                ],
                "substance": {
                    "reference": "#allergen",
                    "display": "Penicillin"
                },
                "reaction": [
                    {
                        "reference": "AdverseReaction/1",
                        "display": "Dizziness"
                    }
                ],
                "subject": {
                    "reference": "Patient/0",
                    "display": ", "
                }
            }
        },
        {
            "resource": {
                "id": "AdverseReaction/3",
                "resourceType": "AdverseReaction",
                "symptom": [
                    {
                        "severity": "severe",
                        "code": {
                            "coding": [
                                {
                                    "system": "http://snomed.info/sct",
                                    "code": "417516000",
                                    "display": "Anaphylaxis due to substance"
                                }
                            ],
                            "text": "Anaphylaxis due to substance"
                        }
                    }
                ],
                "didNotOccurFlag": false,
                "subject": {
                    "reference": "Patient/0",
                    "display": ", "
                }
            }
        },
        {
            "resource": {
                "id": "AllergyIntolerance/4",
                "resourceType": "AllergyIntolerance",
                "sensitivityType": "allergy",
                "recordedDate": "1940-01-01",
                "status": "confirmed",
                "contained": [
                    {
                        "id": "allergen",
                        "resourceType": "Substance",
                        "type": {
                            "coding": [
                                {
                                    "system": "http://fdasis.nlm.nih.gov",
                                    "code": "3729L8MA2C",
                                    "display": "Bee Pollen"
                                }
                            ],
                            "text": "Bee Pollen"
                        }
                    }
                ],
                "substance": {
                    "reference": "#allergen",
                    "display": "Bee Pollen"
                },
                "reaction": [
                    {
                        "reference": "AdverseReaction/3",
                        "display": "Anaphylaxis due to substance"
                    }
                ],
                "subject": {
                    "reference": "Patient/0",
                    "display": ", "
                }
            }
        },
        {
            "resource": {
                "id": "Condition/5",
                "resourceType": "Condition",
                "status": "confirmed",
                "onsetDate": "2005-05-01",
                "dateAsserted": "2005-05-01",
                "code": {
                    "coding": [
                        {
                            "system": "http://snomed.info/sct",
                            "code": "5962100",
                            "display": "Essential Hypertension"
                        }
                    ],
                    "text": "Essential Hypertension"
                },
                "subject": {
                    "reference": "Patient/0",
                    "display": ", "
                }
            }
        },
        {
            "resource": {
                "id": "Condition/6",
                "resourceType": "Condition",
                "status": "confirmed",
                "onsetDate": "2005-05-01",
                "dateAsserted": "2005-05-01",
                "code": {
                    "coding": [
                        {
                            "system": "http://snomed.info/sct",
                            "code": "5582204",
                            "display": "Hyperlipidemia"
                        }
                    ],
                    "text": "Hyperlipidemia"
                },
                "subject": {
                    "reference": "Patient/0",
                    "display": ", "
                }
            }
        },
        {
            "resource": {
                "id": "Condition/7",
                "resourceType": "Condition",
                "status": "confirmed",
                "onsetDate": "2008-11-01",
                "dateAsserted": "2008-11-01",
                "code": {
                    "coding": [
                        {
                            "system": "http://snomed.info/sct",
                            "code": "44054006",
                            "display": "Diabetes Mellitus Type II"
                        }
                    ],
                    "text": "Diabetes Mellitus Type II"
                },
                "subject": {
                    "reference": "Patient/0",
                    "display": ", "
                }
            }
        },
        {
            "resource": {
                "id": "Condition/8",
                "resourceType": "Condition",
                "status": "confirmed",
                "onsetDate": "2009-01-01",
                "dateAsserted": "2009-01-01",
                "code": {
                    "coding": [
                        {
                            "system": "http://snomed.info/sct",
                            "code": "433144002",
                            "display": "Chronic Kidney Disease Stage III"
                        }
                    ],
                    "text": "Chronic Kidney Disease Stage III"
                },
                "subject": {
                    "reference": "Patient/0",
                    "display": ", "
                }
            }
        },
        {
            "resource": {
                "id": "Condition/9",
                "resourceType": "Condition",
                "status": "confirmed",
                "onsetDate": "2006-11-01",
                "dateAsserted": "2006-11-01",
                "code": {
                    "coding": [
                        {
                            "system": "http://snomed.info/sct",
                            "code": "40930008",
                            "display": "Hypothyroidism"
                        }
                    ],
                    "text": "Hypothyroidism"
                },
                "subject": {
                    "reference": "Patient/0",
                    "display": ", "
                }
            }
        },
        {
            "resource": {
                "id": "Condition/10",
                "resourceType": "Condition",
                "status": "confirmed",
                "onsetDate": "2009-07-01",
                "dateAsserted": "2009-07-01",
                "code": {
                    "coding": [
                        {
                            "system": "http://snomed.info/sct",
                            "code": "8957000",
                            "display": "Coronary Artery Disease"
                        }
                    ],
                    "text": "Coronary Artery Disease"
                },
                "subject": {
                    "reference": "Patient/0",
                    "display": ", "
                }
            }
        },
        {
            "resource": {
                "id": "Condition/11",
                "resourceType": "Condition",
                "status": "confirmed",
                "onsetDate": "2008-04-01",
                "dateAsserted": "2008-04-01",
                "code": {
                    "coding": [
                        {
                            "system": "http://snomed.info/sct",
                            "code": "266569009",
                            "display": "Benign prostatic hyperplasia"
                        }
                    ],
                    "text": "Benign prostatic hyperplasia"
                },
                "subject": {
                    "reference": "Patient/0",
                    "display": ", "
                }
            }
        },
        {
            "resource": {
                "id": "Condition/12",
                "resourceType": "Condition",
                "status": "confirmed",
                "onsetDate": "2010-09-01",
                "dateAsserted": "2010-09-01",
                "code": {
                    "coding": [
                        {
                            "system": "http://snomed.info/sct",
                            "code": "49436004",
                            "display": "Atrial fibrillation"
                        }
                    ],
                    "text": "Atrial fibrillation"
                },
                "subject": {
                    "reference": "Patient/0",
                    "display": ", "
                }
            }
        },
        {
            "resource": {
                "id": "Condition/13",
                "resourceType": "Condition",
                "status": "confirmed",
                "onsetDate": "2006-06-01",
                "dateAsserted": "2006-06-01",
                "code": {
                    "coding": [
                        {
                            "system": "http://snomed.info/sct",
                            "code": "230572002",
                            "display": "Diabetic neuropathy"
                        }
                    ],
                    "text": "Diabetic neuropathy"
                },
                "subject": {
                    "reference": "Patient/0",
                    "display": ", "
                }
            }
        },
        {
            "resource": {
                "id": "Condition/14",
                "resourceType": "Condition",
                "status": "confirmed",
                "onsetDate": "1997-10-01",
                "dateAsserted": "1997-10-01",
                "code": {
                    "coding": [
                        {
                            "system": "http://snomed.info/sct",
                            "code": "238134004",
                            "display": "Generalized obesity"
                        }
                    ],
                    "text": "Generalized obesity"
                },
                "subject": {
                    "reference": "Patient/0",
                    "display": ", "
                }
            }
        },
        {
            "resource": {
                "id": "Condition/15",
                "resourceType": "Condition",
                "status": "confirmed",
                "onsetDate": "2011-09-01",
                "dateAsserted": "2011-09-01",
                "code": {
                    "coding": [
                        {
                            "system": "http://snomed.info/sct",
                            "code": "193462001",
                            "display": "Insomnia"
                        }
                    ],
                    "text": "Insomnia"
                },
                "subject": {
                    "reference": "Patient/0",
                    "display": ", "
                }
            }
        },
        {
            "resource": {
                "id": "Observation/16",
                "resourceType": "Observation",
                "name": {
                    "coding": [
                        {
                            "system": "http://loinc.org",
                            "code": "3016-3",
                            "display": "Thyrotropin [Units/volume] in Serum or Plasma"
                        }
                    ],
                    "text": "Thyrotropin [Units/volume] in Serum or Plasma"
                },
                "valueQuantity": {
                    "value": 6,
                    "units": "m[IU]/L",
                    "code": "m[IU]/L",
                    "system": "http://unitsofmeasure.org"
                },
                "issued": "2012-11-26",
                "status": "final",
                "reliability": "ok",
                "extension": [
                    {
                        "url": "http://amida.com/fhir/Profile/extensions#observation-type",
                        "valueCoding": {
                            "code": "11502-2",
                            "display": "Laboratory report",
                            "system": "http://loinc.org"
                        }
                    }
                ],
                "interpretation": {
                    "coding": [
                        {
                            "system": "http://hl7.org/fhir/v2/0078",
                            "code": "A",
                            "display": "abnormal"
                        }
                    ],
                    "text": "abnormal"
                },
                "referenceRange": [
                    {
                        "meaning": {
                            "coding": [
                                {
                                    "system": "http://hl7.org/fhir/referencerange-meaning",
                                    "code": "normal",
                                    "display": "Normal Range"
                                }
                            ],
                            "text": "Normal Range"
                        },
                        "text": "normal: 0.29–5.11 IU/ml"
                    }
                ],
                "subject": {
                    "reference": "Patient/0",
                    "display": ", "
                }
            }
        },
        {
            "resource": {
                "id": "Observation/17",
                "resourceType": "Observation",
                "name": {
                    "coding": [
                        {
                            "system": "http://loinc.org",
                            "code": "11579-0",
                            "display": "Thyrotropin [Units/volume] in Serum or Plasma by Detection limit less than or equal to 0.05 mIU/L"
                        }
                    ],
                    "text": "Thyrotropin [Units/volume] in Serum or Plasma by Detection limit less than or equal to 0.05 mIU/L"
                },
                "status": "final",
                "reliability": "ok",
                "related": [
                    {
                        "type": "has-component",
                        "target": {
                            "reference": "Observation/16"
                        }
                    }
                ],
                "extension": [
                    {
                        "url": "http://amida.com/fhir/Profile/extensions#observation-type",
                        "valueCoding": {
                            "code": "11502-2",
                            "display": "Laboratory report",
                            "system": "http://loinc.org"
                        }
                    }
                ],
                "subject": {
                    "reference": "Patient/0",
                    "display": ", "
                }
            }
        },
        {
            "resource": {
                "id": "Observation/18",
                "resourceType": "Observation",
                "name": {
                    "coding": [
                        {
                            "system": "http://loinc.org",
                            "code": "4548-4",
                            "display": "Hemoglobin A1c/Hemoglobin.total in Blood"
                        }
                    ],
                    "text": "Hemoglobin A1c/Hemoglobin.total in Blood"
                },
                "valueQuantity": {
                    "value": 8,
                    "units": "%",
                    "code": "%",
                    "system": "http://unitsofmeasure.org"
                },
                "issued": "2012-11-26",
                "status": "final",
                "reliability": "ok",
                "extension": [
                    {
                        "url": "http://amida.com/fhir/Profile/extensions#observation-type",
                        "valueCoding": {
                            "code": "11502-2",
                            "display": "Laboratory report",
                            "system": "http://loinc.org"
                        }
                    }
                ],
                "interpretation": {
                    "coding": [
                        {
                            "system": "http://hl7.org/fhir/v2/0078",
                            "code": "A",
                            "display": "abnormal"
                        }
                    ],
                    "text": "abnormal"
                },
                "referenceRange": [
                    {
                        "meaning": {
                            "coding": [
                                {
                                    "system": "http://hl7.org/fhir/referencerange-meaning",
                                    "code": "normal",
                                    "display": "Normal Range"
                                }
                            ],
                            "text": "Normal Range"
                        },
                        "text": "normal: 4.0-5.6%"
                    }
                ],
                "subject": {
                    "reference": "Patient/0",
                    "display": ", "
                }
            }
        },
        {
            "resource": {
                "id": "Observation/19",
                "resourceType": "Observation",
                "name": {
                    "coding": [
                        {
                            "system": "http://loinc.org",
                            "code": "2160-0",
                            "display": "Creatinine [Mass/volume] in Serum or Plasma"
                        }
                    ],
                    "text": "Creatinine [Mass/volume] in Serum or Plasma"
                },
                "valueQuantity": {
                    "value": 1.5,
                    "units": "mg/dL",
                    "code": "mg/dL",
                    "system": "http://unitsofmeasure.org"
                },
                "issued": "2012-11-26",
                "status": "final",
                "reliability": "ok",
                "extension": [
                    {
                        "url": "http://amida.com/fhir/Profile/extensions#observation-type",
                        "valueCoding": {
                            "code": "11502-2",
                            "display": "Laboratory report",
                            "system": "http://loinc.org"
                        }
                    }
                ],
                "interpretation": {
                    "coding": [
                        {
                            "system": "http://hl7.org/fhir/v2/0078",
                            "code": "A",
                            "display": "abnormal"
                        }
                    ],
                    "text": "abnormal"
                },
                "referenceRange": [
                    {
                        "meaning": {
                            "coding": [
                                {
                                    "system": "http://hl7.org/fhir/referencerange-meaning",
                                    "code": "normal",
                                    "display": "Normal Range"
                                }
                            ],
                            "text": "Normal Range"
                        },
                        "text": "normal: below 1.5 mg/dL"
                    }
                ],
                "subject": {
                    "reference": "Patient/0",
                    "display": ", "
                }
            }
        },
        {
            "resource": {
                "id": "Observation/20",
                "resourceType": "Observation",
                "name": {
                    "coding": [
                        {
                            "system": "http://loinc.org",
                            "code": "6301-6",
                            "display": "INR in Platelet poor plasma by Coagulation assay"
                        }
                    ],
                    "text": "INR in Platelet poor plasma by Coagulation assay"
                },
                "valueQuantity": {
                    "value": 1.5
                },
                "issued": "2012-11-26",
                "status": "final",
                "reliability": "ok",
                "extension": [
                    {
                        "url": "http://amida.com/fhir/Profile/extensions#observation-type",
                        "valueCoding": {
                            "code": "11502-2",
                            "display": "Laboratory report",
                            "system": "http://loinc.org"
                        }
                    }
                ],
                "interpretation": {
                    "coding": [
                        {
                            "system": "http://hl7.org/fhir/v2/0078",
                            "code": "A",
                            "display": "abnormal"
                        }
                    ],
                    "text": "abnormal"
                },
                "referenceRange": [
                    {
                        "meaning": {
                            "coding": [
                                {
                                    "system": "http://hl7.org/fhir/referencerange-meaning",
                                    "code": "normal",
                                    "display": "Normal Range"
                                }
                            ],
                            "text": "Normal Range"
                        },
                        "text": "Normal reference range 1.0-1.5; Targeted INR 2.0-3.0"
                    }
                ],
                "subject": {
                    "reference": "Patient/0",
                    "display": ", "
                }
            }
        },
        {
            "resource": {
                "id": "Observation/21",
                "resourceType": "Observation",
                "name": {
                    "coding": [
                        {
                            "system": "http://loinc.org",
                            "code": "18041-4",
                            "display": "Aortic valve Ejection [Time] by US.doppler"
                        }
                    ],
                    "text": "Aortic valve Ejection [Time] by US.doppler"
                },
                "valueQuantity": {
                    "value": 55,
                    "units": "%",
                    "code": "%",
                    "system": "http://unitsofmeasure.org"
                },
                "issued": "2012-11-26",
                "status": "final",
                "reliability": "ok",
                "extension": [
                    {
                        "url": "http://amida.com/fhir/Profile/extensions#observation-type",
                        "valueCoding": {
                            "code": "11502-2",
                            "display": "Laboratory report",
                            "system": "http://loinc.org"
                        }
                    }
                ],
                "interpretation": {
                    "coding": [
                        {
                            "system": "http://hl7.org/fhir/v2/0078",
                            "code": "N",
                            "display": "normal"
                        }
                    ],
                    "text": "normal"
                },
                "referenceRange": [
                    {
                        "meaning": {
                            "coding": [
                                {
                                    "system": "http://hl7.org/fhir/referencerange-meaning",
                                    "code": "normal",
                                    "display": "Normal Range"
                                }
                            ],
                            "text": "Normal Range"
                        },
                        "text": "Normal: 50-75%"
                    }
                ],
                "subject": {
                    "reference": "Patient/0",
                    "display": ", "
                }
            }
        },
        {
            "resource": {
                "id": "Observation/22",
                "resourceType": "Observation",
                "name": {
                    "coding": [
                        {
                            "system": "http://loinc.org",
                            "code": "18089-3",
                            "display": "AV Orifice Area US"
                        }
                    ],
                    "text": "AV Orifice Area US"
                },
                "valueQuantity": {
                    "value": 1.5,
                    "units": "cm2",
                    "code": "cm2",
                    "system": "http://unitsofmeasure.org"
                },
                "issued": "2012-11-26",
                "status": "final",
                "reliability": "ok",
                "extension": [
                    {
                        "url": "http://amida.com/fhir/Profile/extensions#observation-type",
                        "valueCoding": {
                            "code": "11502-2",
                            "display": "Laboratory report",
                            "system": "http://loinc.org"
                        }
                    }
                ],
                "interpretation": {
                    "coding": [
                        {
                            "system": "http://hl7.org/fhir/v2/0078",
                            "code": "A",
                            "display": "abnormal"
                        }
                    ],
                    "text": "abnormal"
                },
                "referenceRange": [
                    {
                        "meaning": {
                            "coding": [
                                {
                                    "system": "http://hl7.org/fhir/referencerange-meaning",
                                    "code": "normal",
                                    "display": "Normal Range"
                                }
                            ],
                            "text": "Normal Range"
                        },
                        "text": "Normal (3.0-4.0 cm2), mild (1.5–2.0 cm2), moderate (1.0–1.5 cm2), severe (less than 1.0 cm2)"
                    }
                ],
                "subject": {
                    "reference": "Patient/0",
                    "display": ", "
                }
            }
        },
        {
            "resource": {
                "id": "Observation/23",
                "resourceType": "Observation",
                "name": {
                    "coding": [
                        {
                            "system": "http://loinc.org",
                            "code": "34552-0",
                            "display": "2D echocardiogram panel"
                        }
                    ],
                    "text": "2D echocardiogram panel"
                },
                "status": "final",
                "reliability": "ok",
                "related": [
                    {
                        "type": "has-component",
                        "target": {
                            "reference": "Observation/21"
                        }
                    },
                    {
                        "type": "has-component",
                        "target": {
                            "reference": "Observation/22"
                        }
                    }
                ],
                "extension": [
                    {
                        "url": "http://amida.com/fhir/Profile/extensions#observation-type",
                        "valueCoding": {
                            "code": "11502-2",
                            "display": "Laboratory report",
                            "system": "http://loinc.org"
                        }
                    }
                ],
                "subject": {
                    "reference": "Patient/0",
                    "display": ", "
                }
            }
        },
        {
            "resource": {
                "id": "Observation/24",
                "resourceType": "Observation",
                "name": {
                    "coding": [
                        {
                            "system": "http://loinc.org",
                            "code": "18844-1",
                            "display": "EKG impression Narrative"
                        }
                    ],
                    "text": "EKG impression Narrative"
                },
                "valueString": "EKG rate 60s, A fib, LBBB",
                "issued": "2012-11-26",
                "status": "final",
                "reliability": "ok",
                "extension": [
                    {
                        "url": "http://amida.com/fhir/Profile/extensions#observation-type",
                        "valueCoding": {
                            "code": "11502-2",
                            "display": "Laboratory report",
                            "system": "http://loinc.org"
                        }
                    }
                ],
                "subject": {
                    "reference": "Patient/0",
                    "display": ", "
                }
            }
        },
        {
            "resource": {
                "id": "Observation/25",
                "resourceType": "Observation",
                "name": {
                    "coding": [
                        {
                            "system": "http://loinc.org",
                            "code": "34534-8",
                            "display": "EKG 12 channel panel"
                        }
                    ],
                    "text": "EKG 12 channel panel"
                },
                "status": "final",
                "reliability": "ok",
                "related": [
                    {
                        "type": "has-component",
                        "target": {
                            "reference": "Observation/24"
                        }
                    }
                ],
                "extension": [
                    {
                        "url": "http://amida.com/fhir/Profile/extensions#observation-type",
                        "valueCoding": {
                            "code": "11502-2",
                            "display": "Laboratory report",
                            "system": "http://loinc.org"
                        }
                    }
                ],
                "subject": {
                    "reference": "Patient/0",
                    "display": ", "
                }
            }
        },
        {
            "resource": {
                "id": "MedicationPrescription/26",
                "resourceType": "MedicationPrescription",
                "status": "active",
                "dateWritten": "2012-11-01",
                "dosageInstruction": [
                    {
                        "route": {
                            "coding": [
                                {
                                    "system": "urn:oid:2.16.840.1.113883.3.26.1.1",
                                    "code": "C38288",
                                    "display": "oral"
                                }
                            ],
                            "text": "oral"
                        },
                        "doseQuantity": {
                            "value": 1
                        },
                        "timingSchedule": {
                            "event": [
                                {
                                    "start": "2012-11-01"
                                }
                            ],
                            "repeat": {
                                "frequency": 1,
                                "duration": 24,
                                "units": "h",
                                "end": "2012-12-31"
                            }
                        }
                    }
                ],
                "text": {
                    "status": "generated",
                    "div": "Lisinopril - 20mg by mouth once daily"
                },
                "contained": [
                    {
                        "id": "med",
                        "resourceType": "Medication",
                        "name": "Lisinopril 20 MG Oral Tablet",
                        "code": {
                            "coding": [
                                {
                                    "system": "http://www.nlm.nih.gov/research/umls/rxnorm",
                                    "code": "314077",
                                    "display": "Lisinopril 20 MG Oral Tablet"
                                }
                            ],
                            "text": "Lisinopril 20 MG Oral Tablet"
                        }
                    }
                ],
                "medication": {
                    "reference": "#med",
                    "display": "Lisinopril 20 MG Oral Tablet"
                },
                "patient": {
                    "reference": "Patient/0",
                    "display": ", "
                }
            }
        },
        {
            "resource": {
                "id": "MedicationAdministration/27",
                "resourceType": "MedicationAdministration",
                "status": "completed",
                "practitioner": {
                    "reference": "Practitioner/unknown",
                    "display": "Unknown"
                },
                "whenGiven": {
                    "start": "2012-11-01",
                    "end": "2012-12-31"
                },
                "dosage": [
                    {
                        "route": {
                            "coding": [
                                {
                                    "system": "urn:oid:2.16.840.1.113883.3.26.1.1",
                                    "code": "C38288",
                                    "display": "oral"
                                }
                            ],
                            "text": "oral"
                        },
                        "quantity": {
                            "value": 1
                        },
                        "timingPeriod": {
                            "start": "2012-11-01",
                            "end": "2012-12-31"
                        }
                    }
                ],
                "prescription": {
                    "reference": "MedicationPrescription/26",
                    "display": "Lisinopril - 20mg by mouth once daily"
                },
                "contained": [
                    {
                        "id": "med",
                        "resourceType": "Medication",
                        "name": "Lisinopril 20 MG Oral Tablet",
                        "code": {
                            "coding": [
                                {
                                    "system": "http://www.nlm.nih.gov/research/umls/rxnorm",
                                    "code": "314077",
                                    "display": "Lisinopril 20 MG Oral Tablet"
                                }
                            ],
                            "text": "Lisinopril 20 MG Oral Tablet"
                        }
                    }
                ],
                "medication": {
                    "reference": "#med",
                    "display": "Lisinopril 20 MG Oral Tablet"
                },
                "patient": {
                    "reference": "Patient/0",
                    "display": ", "
                }
            }
        },
        {
            "resource": {
                "id": "MedicationPrescription/28",
                "resourceType": "MedicationPrescription",
                "status": "active",
                "dateWritten": "2012-11-01",
                "dosageInstruction": [
                    {
                        "route": {
                            "coding": [
                                {
                                    "system": "urn:oid:2.16.840.1.113883.3.26.1.1",
                                    "code": "C38288",
                                    "display": "oral"
                                }
                            ],
                            "text": "oral"
                        },
                        "doseQuantity": {
                            "value": 1
                        },
                        "timingSchedule": {
                            "event": [
                                {
                                    "start": "2012-11-01"
                                }
                            ],
                            "repeat": {
                                "frequency": 1,
                                "duration": 24,
                                "units": "h",
                                "end": "2012-12-31"
                            }
                        }
                    }
                ],
                "text": {
                    "status": "generated",
                    "div": "Lasix - 40mg by mouth once daily"
                },
                "contained": [
                    {
                        "id": "med",
                        "resourceType": "Medication",
                        "name": "Furosemide 40 MG Oral Tablet",
                        "code": {
                            "coding": [
                                {
                                    "system": "http://www.nlm.nih.gov/research/umls/rxnorm",
                                    "code": "313988",
                                    "display": "Furosemide 40 MG Oral Tablet"
                                }
                            ],
                            "text": "Furosemide 40 MG Oral Tablet"
                        }
                    }
                ],
                "medication": {
                    "reference": "#med",
                    "display": "Furosemide 40 MG Oral Tablet"
                },
                "patient": {
                    "reference": "Patient/0",
                    "display": ", "
                }
            }
        },
        {
            "resource": {
                "id": "MedicationAdministration/29",
                "resourceType": "MedicationAdministration",
                "status": "completed",
                "practitioner": {
                    "reference": "Practitioner/unknown",
                    "display": "Unknown"
                },
                "whenGiven": {
                    "start": "2012-11-01",
                    "end": "2012-12-31"
                },
                "dosage": [
                    {
                        "route": {
                            "coding": [
                                {
                                    "system": "urn:oid:2.16.840.1.113883.3.26.1.1",
                                    "code": "C38288",
                                    "display": "oral"
                                }
                            ],
                            "text": "oral"
                        },
                        "quantity": {
                            "value": 1
                        },
                        "timingPeriod": {
                            "start": "2012-11-01",
                            "end": "2012-12-31"
                        }
                    }
                ],
                "prescription": {
                    "reference": "MedicationPrescription/28",
                    "display": "Lasix - 40mg by mouth once daily"
                },
                "contained": [
                    {
                        "id": "med",
                        "resourceType": "Medication",
                        "name": "Furosemide 40 MG Oral Tablet",
                        "code": {
                            "coding": [
                                {
                                    "system": "http://www.nlm.nih.gov/research/umls/rxnorm",
                                    "code": "313988",
                                    "display": "Furosemide 40 MG Oral Tablet"
                                }
                            ],
                            "text": "Furosemide 40 MG Oral Tablet"
                        }
                    }
                ],
                "medication": {
                    "reference": "#med",
                    "display": "Furosemide 40 MG Oral Tablet"
                },
                "patient": {
                    "reference": "Patient/0",
                    "display": ", "
                }
            }
        },
        {
            "resource": {
                "id": "MedicationPrescription/30",
                "resourceType": "MedicationPrescription",
                "status": "active",
                "dateWritten": "2012-11-01",
                "dosageInstruction": [
                    {
                        "route": {
                            "coding": [
                                {
                                    "system": "urn:oid:2.16.840.1.113883.3.26.1.1",
                                    "code": "C38288",
                                    "display": "oral"
                                }
                            ],
                            "text": "oral"
                        },
                        "doseQuantity": {
                            "value": 1
                        },
                        "timingSchedule": {
                            "event": [
                                {
                                    "start": "2012-11-01"
                                }
                            ],
                            "repeat": {
                                "frequency": 1,
                                "duration": 24,
                                "units": "h",
                                "end": "2012-12-31"
                            }
                        }
                    }
                ],
                "text": {
                    "status": "generated",
                    "div": "K-Dur - 10mEq/L by mouth once daily"
                },
                "contained": [
                    {
                        "id": "med",
                        "resourceType": "Medication",
                        "name": "K-Dur 10 MEQ Extended Release Tablet",
                        "code": {
                            "coding": [
                                {
                                    "system": "http://www.nlm.nih.gov/research/umls/rxnorm",
                                    "code": "706459",
                                    "display": "K-Dur 10 MEQ Extended Release Tablet"
                                }
                            ],
                            "text": "K-Dur 10 MEQ Extended Release Tablet"
                        }
                    }
                ],
                "medication": {
                    "reference": "#med",
                    "display": "K-Dur 10 MEQ Extended Release Tablet"
                },
                "patient": {
                    "reference": "Patient/0",
                    "display": ", "
                }
            }
        },
        {
            "resource": {
                "id": "MedicationAdministration/31",
                "resourceType": "MedicationAdministration",
                "status": "completed",
                "practitioner": {
                    "reference": "Practitioner/unknown",
                    "display": "Unknown"
                },
                "whenGiven": {
                    "start": "2012-11-01",
                    "end": "2012-12-31"
                },
                "dosage": [
                    {
                        "route": {
                            "coding": [
                                {
                                    "system": "urn:oid:2.16.840.1.113883.3.26.1.1",
                                    "code": "C38288",
                                    "display": "oral"
                                }
                            ],
                            "text": "oral"
                        },
                        "quantity": {
                            "value": 1
                        },
                        "timingPeriod": {
                            "start": "2012-11-01",
                            "end": "2012-12-31"
                        }
                    }
                ],
                "prescription": {
                    "reference": "MedicationPrescription/30",
                    "display": "K-Dur - 10mEq/L by mouth once daily"
                },
                "contained": [
                    {
                        "id": "med",
                        "resourceType": "Medication",
                        "name": "K-Dur 10 MEQ Extended Release Tablet",
                        "code": {
                            "coding": [
                                {
                                    "system": "http://www.nlm.nih.gov/research/umls/rxnorm",
                                    "code": "706459",
                                    "display": "K-Dur 10 MEQ Extended Release Tablet"
                                }
                            ],
                            "text": "K-Dur 10 MEQ Extended Release Tablet"
                        }
                    }
                ],
                "medication": {
                    "reference": "#med",
                    "display": "K-Dur 10 MEQ Extended Release Tablet"
                },
                "patient": {
                    "reference": "Patient/0",
                    "display": ", "
                }
            }
        },
        {
            "resource": {
                "id": "MedicationPrescription/32",
                "resourceType": "MedicationPrescription",
                "status": "active",
                "dateWritten": "2012-11-01",
                "dosageInstruction": [
                    {
                        "route": {
                            "coding": [
                                {
                                    "system": "urn:oid:2.16.840.1.113883.3.26.1.1",
                                    "code": "C38288",
                                    "display": "oral"
                                }
                            ],
                            "text": "oral"
                        },
                        "doseQuantity": {
                            "value": 1
                        },
                        "timingSchedule": {
                            "event": [
                                {
                                    "start": "2012-11-01"
                                }
                            ],
                            "repeat": {
                                "frequency": 1,
                                "duration": 24,
                                "units": "h",
                                "end": "2012-12-31"
                            }
                        }
                    }
                ],
                "text": {
                    "status": "generated",
                    "div": "Norvasc - 10mg by mouth once daily"
                },
                "contained": [
                    {
                        "id": "med",
                        "resourceType": "Medication",
                        "name": "Amlodipine 10 MG Oral Tablet",
                        "code": {
                            "coding": [
                                {
                                    "system": "http://www.nlm.nih.gov/research/umls/rxnorm",
                                    "code": "308135",
                                    "display": "Amlodipine 10 MG Oral Tablet"
                                }
                            ],
                            "text": "Amlodipine 10 MG Oral Tablet"
                        }
                    }
                ],
                "medication": {
                    "reference": "#med",
                    "display": "Amlodipine 10 MG Oral Tablet"
                },
                "patient": {
                    "reference": "Patient/0",
                    "display": ", "
                }
            }
        },
        {
            "resource": {
                "id": "MedicationAdministration/33",
                "resourceType": "MedicationAdministration",
                "status": "completed",
                "practitioner": {
                    "reference": "Practitioner/unknown",
                    "display": "Unknown"
                },
                "whenGiven": {
                    "start": "2012-11-01",
                    "end": "2012-12-31"
                },
                "dosage": [
                    {
                        "route": {
                            "coding": [
                                {
                                    "system": "urn:oid:2.16.840.1.113883.3.26.1.1",
                                    "code": "C38288",
                                    "display": "oral"
                                }
                            ],
                            "text": "oral"
                        },
                        "quantity": {
                            "value": 1
                        },
                        "timingPeriod": {
                            "start": "2012-11-01",
                            "end": "2012-12-31"
                        }
                    }
                ],
                "prescription": {
                    "reference": "MedicationPrescription/32",
                    "display": "Norvasc - 10mg by mouth once daily"
                },
                "contained": [
                    {
                        "id": "med",
                        "resourceType": "Medication",
                        "name": "Amlodipine 10 MG Oral Tablet",
                        "code": {
                            "coding": [
                                {
                                    "system": "http://www.nlm.nih.gov/research/umls/rxnorm",
                                    "code": "308135",
                                    "display": "Amlodipine 10 MG Oral Tablet"
                                }
                            ],
                            "text": "Amlodipine 10 MG Oral Tablet"
                        }
                    }
                ],
                "medication": {
                    "reference": "#med",
                    "display": "Amlodipine 10 MG Oral Tablet"
                },
                "patient": {
                    "reference": "Patient/0",
                    "display": ", "
                }
            }
        },
        {
            "resource": {
                "id": "MedicationPrescription/34",
                "resourceType": "MedicationPrescription",
                "status": "active",
                "dateWritten": "2012-11-01",
                "dosageInstruction": [
                    {
                        "route": {
                            "coding": [
                                {
                                    "system": "urn:oid:2.16.840.1.113883.3.26.1.1",
                                    "code": "C38288",
                                    "display": "oral"
                                }
                            ],
                            "text": "oral"
                        },
                        "doseQuantity": {
                            "value": 1
                        },
                        "timingSchedule": {
                            "event": [
                                {
                                    "start": "2012-11-01"
                                }
                            ],
                            "repeat": {
                                "frequency": 1,
                                "duration": 1,
                                "units": "s",
                                "end": "2012-12-31"
                            }
                        }
                    }
                ],
                "text": {
                    "status": "generated",
                    "div": "Zocor - 40mg by mouth once daily before bed"
                },
                "contained": [
                    {
                        "id": "med",
                        "resourceType": "Medication",
                        "name": "Simvastatin 40 MG Oral Tablet",
                        "code": {
                            "coding": [
                                {
                                    "system": "http://www.nlm.nih.gov/research/umls/rxnorm",
                                    "code": "198211",
                                    "display": "Simvastatin 40 MG Oral Tablet"
                                }
                            ],
                            "text": "Simvastatin 40 MG Oral Tablet"
                        }
                    }
                ],
                "medication": {
                    "reference": "#med",
                    "display": "Simvastatin 40 MG Oral Tablet"
                },
                "patient": {
                    "reference": "Patient/0",
                    "display": ", "
                }
            }
        },
        {
            "resource": {
                "id": "MedicationAdministration/35",
                "resourceType": "MedicationAdministration",
                "status": "completed",
                "practitioner": {
                    "reference": "Practitioner/unknown",
                    "display": "Unknown"
                },
                "whenGiven": {
                    "start": "2012-11-01",
                    "end": "2012-12-31"
                },
                "dosage": [
                    {
                        "route": {
                            "coding": [
                                {
                                    "system": "urn:oid:2.16.840.1.113883.3.26.1.1",
                                    "code": "C38288",
                                    "display": "oral"
                                }
                            ],
                            "text": "oral"
                        },
                        "quantity": {
                            "value": 1
                        },
                        "timingPeriod": {
                            "start": "2012-11-01",
                            "end": "2012-12-31"
                        }
                    }
                ],
                "prescription": {
                    "reference": "MedicationPrescription/34",
                    "display": "Zocor - 40mg by mouth once daily before bed"
                },
                "contained": [
                    {
                        "id": "med",
                        "resourceType": "Medication",
                        "name": "Simvastatin 40 MG Oral Tablet",
                        "code": {
                            "coding": [
                                {
                                    "system": "http://www.nlm.nih.gov/research/umls/rxnorm",
                                    "code": "198211",
                                    "display": "Simvastatin 40 MG Oral Tablet"
                                }
                            ],
                            "text": "Simvastatin 40 MG Oral Tablet"
                        }
                    }
                ],
                "medication": {
                    "reference": "#med",
                    "display": "Simvastatin 40 MG Oral Tablet"
                },
                "patient": {
                    "reference": "Patient/0",
                    "display": ", "
                }
            }
        },
        {
            "resource": {
                "id": "MedicationPrescription/36",
                "resourceType": "MedicationPrescription",
                "status": "active",
                "dateWritten": "2012-11-01",
                "dosageInstruction": [
                    {
                        "route": {
                            "coding": [
                                {
                                    "system": "urn:oid:2.16.840.1.113883.3.26.1.1",
                                    "code": "C38299",
                                    "display": "SUBCUTANEOUS"
                                }
                            ],
                            "text": "SUBCUTANEOUS"
                        },
                        "doseQuantity": {
                            "value": 0.36,
                            "units": "ml",
                            "code": "ml",
                            "system": "http://unitsofmeasure.org"
                        },
                        "timingSchedule": {
                            "event": [
                                {
                                    "start": "2012-11-01"
                                }
                            ],
                            "repeat": {
                                "frequency": 1,
                                "duration": 1,
                                "units": "s",
                                "end": "2012-12-31"
                            }
                        }
                    }
                ],
                "text": {
                    "status": "generated",
                    "div": "Lantus - 36 units once daily before bed"
                },
                "contained": [
                    {
                        "id": "med",
                        "resourceType": "Medication",
                        "name": "Insulin Glargine 100 UNT/ML Injectable Solution",
                        "code": {
                            "coding": [
                                {
                                    "system": "http://www.nlm.nih.gov/research/umls/rxnorm",
                                    "code": "311041",
                                    "display": "Insulin Glargine 100 UNT/ML Injectable Solution"
                                }
                            ],
                            "text": "Insulin Glargine 100 UNT/ML Injectable Solution"
                        }
                    }
                ],
                "medication": {
                    "reference": "#med",
                    "display": "Insulin Glargine 100 UNT/ML Injectable Solution"
                },
                "patient": {
                    "reference": "Patient/0",
                    "display": ", "
                }
            }
        },
        {
            "resource": {
                "id": "MedicationAdministration/37",
                "resourceType": "MedicationAdministration",
                "status": "completed",
                "practitioner": {
                    "reference": "Practitioner/unknown",
                    "display": "Unknown"
                },
                "whenGiven": {
                    "start": "2012-11-01",
                    "end": "2012-12-31"
                },
                "dosage": [
                    {
                        "route": {
                            "coding": [
                                {
                                    "system": "urn:oid:2.16.840.1.113883.3.26.1.1",
                                    "code": "C38299",
                                    "display": "SUBCUTANEOUS"
                                }
                            ],
                            "text": "SUBCUTANEOUS"
                        },
                        "quantity": {
                            "value": 0.36,
                            "units": "ml",
                            "code": "ml",
                            "system": "http://unitsofmeasure.org"
                        },
                        "timingPeriod": {
                            "start": "2012-11-01",
                            "end": "2012-12-31"
                        }
                    }
                ],
                "prescription": {
                    "reference": "MedicationPrescription/36",
                    "display": "Lantus - 36 units once daily before bed"
                },
                "contained": [
                    {
                        "id": "med",
                        "resourceType": "Medication",
                        "name": "Insulin Glargine 100 UNT/ML Injectable Solution",
                        "code": {
                            "coding": [
                                {
                                    "system": "http://www.nlm.nih.gov/research/umls/rxnorm",
                                    "code": "311041",
                                    "display": "Insulin Glargine 100 UNT/ML Injectable Solution"
                                }
                            ],
                            "text": "Insulin Glargine 100 UNT/ML Injectable Solution"
                        }
                    }
                ],
                "medication": {
                    "reference": "#med",
                    "display": "Insulin Glargine 100 UNT/ML Injectable Solution"
                },
                "patient": {
                    "reference": "Patient/0",
                    "display": ", "
                }
            }
        },
        {
            "resource": {
                "id": "MedicationPrescription/38",
                "resourceType": "MedicationPrescription",
                "status": "active",
                "dateWritten": "2012-11-01",
                "dosageInstruction": [
                    {
                        "route": {
                            "coding": [
                                {
                                    "system": "urn:oid:2.16.840.1.113883.3.26.1.1",
                                    "code": "C38288",
                                    "display": "oral"
                                }
                            ],
                            "text": "oral"
                        },
                        "doseQuantity": {
                            "value": 1
                        },
                        "timingSchedule": {
                            "event": [
                                {
                                    "start": "2012-11-01"
                                }
                            ],
                            "repeat": {
                                "frequency": 1,
                                "duration": 24,
                                "units": "h",
                                "end": "2012-12-31"
                            }
                        }
                    }
                ],
                "text": {
                    "status": "generated",
                    "div": "gliburide - 2.5mg by mouth once daily"
                },
                "contained": [
                    {
                        "id": "med",
                        "resourceType": "Medication",
                        "name": "glyBURIDE 2.5 MG / metFORMIN hydrochloride 500 MG Oral Tablet",
                        "code": {
                            "coding": [
                                {
                                    "system": "http://www.nlm.nih.gov/research/umls/rxnorm",
                                    "code": "861748",
                                    "display": "glyBURIDE 2.5 MG / metFORMIN hydrochloride 500 MG Oral Tablet"
                                }
                            ],
                            "text": "glyBURIDE 2.5 MG / metFORMIN hydrochloride 500 MG Oral Tablet"
                        }
                    }
                ],
                "medication": {
                    "reference": "#med",
                    "display": "glyBURIDE 2.5 MG / metFORMIN hydrochloride 500 MG Oral Tablet"
                },
                "patient": {
                    "reference": "Patient/0",
                    "display": ", "
                }
            }
        },
        {
            "resource": {
                "id": "MedicationAdministration/39",
                "resourceType": "MedicationAdministration",
                "status": "completed",
                "practitioner": {
                    "reference": "Practitioner/unknown",
                    "display": "Unknown"
                },
                "whenGiven": {
                    "start": "2012-11-01",
                    "end": "2012-12-31"
                },
                "dosage": [
                    {
                        "route": {
                            "coding": [
                                {
                                    "system": "urn:oid:2.16.840.1.113883.3.26.1.1",
                                    "code": "C38288",
                                    "display": "oral"
                                }
                            ],
                            "text": "oral"
                        },
                        "quantity": {
                            "value": 1
                        },
                        "timingPeriod": {
                            "start": "2012-11-01",
                            "end": "2012-12-31"
                        }
                    }
                ],
                "prescription": {
                    "reference": "MedicationPrescription/38",
                    "display": "gliburide - 2.5mg by mouth once daily"
                },
                "contained": [
                    {
                        "id": "med",
                        "resourceType": "Medication",
                        "name": "glyBURIDE 2.5 MG / metFORMIN hydrochloride 500 MG Oral Tablet",
                        "code": {
                            "coding": [
                                {
                                    "system": "http://www.nlm.nih.gov/research/umls/rxnorm",
                                    "code": "861748",
                                    "display": "glyBURIDE 2.5 MG / metFORMIN hydrochloride 500 MG Oral Tablet"
                                }
                            ],
                            "text": "glyBURIDE 2.5 MG / metFORMIN hydrochloride 500 MG Oral Tablet"
                        }
                    }
                ],
                "medication": {
                    "reference": "#med",
                    "display": "glyBURIDE 2.5 MG / metFORMIN hydrochloride 500 MG Oral Tablet"
                },
                "patient": {
                    "reference": "Patient/0",
                    "display": ", "
                }
            }
        },
        {
            "resource": {
                "id": "MedicationPrescription/40",
                "resourceType": "MedicationPrescription",
                "status": "active",
                "dateWritten": "2012-11-01",
                "dosageInstruction": [
                    {
                        "route": {
                            "coding": [
                                {
                                    "system": "urn:oid:2.16.840.1.113883.3.26.1.1",
                                    "code": "C38288",
                                    "display": "oral"
                                }
                            ],
                            "text": "oral"
                        },
                        "doseQuantity": {
                            "value": 1
                        },
                        "timingSchedule": {
                            "event": [
                                {
                                    "start": "2012-11-01"
                                }
                            ],
                            "repeat": {
                                "frequency": 1,
                                "duration": 24,
                                "units": "h",
                                "end": "2012-12-31"
                            }
                        }
                    }
                ],
                "text": {
                    "status": "generated",
                    "div": "synthroid - 0.1mg by mouth once daily"
                },
                "contained": [
                    {
                        "id": "med",
                        "resourceType": "Medication",
                        "name": "Levothyroxine Sodium 0.1 MG Oral Tablet",
                        "code": {
                            "coding": [
                                {
                                    "system": "http://www.nlm.nih.gov/research/umls/rxnorm",
                                    "code": "892246",
                                    "display": "Levothyroxine Sodium 0.1 MG Oral Tablet"
                                }
                            ],
                            "text": "Levothyroxine Sodium 0.1 MG Oral Tablet"
                        }
                    }
                ],
                "medication": {
                    "reference": "#med",
                    "display": "Levothyroxine Sodium 0.1 MG Oral Tablet"
                },
                "patient": {
                    "reference": "Patient/0",
                    "display": ", "
                }
            }
        },
        {
            "resource": {
                "id": "MedicationAdministration/41",
                "resourceType": "MedicationAdministration",
                "status": "completed",
                "practitioner": {
                    "reference": "Practitioner/unknown",
                    "display": "Unknown"
                },
                "whenGiven": {
                    "start": "2012-11-01",
                    "end": "2012-12-31"
                },
                "dosage": [
                    {
                        "route": {
                            "coding": [
                                {
                                    "system": "urn:oid:2.16.840.1.113883.3.26.1.1",
                                    "code": "C38288",
                                    "display": "oral"
                                }
                            ],
                            "text": "oral"
                        },
                        "quantity": {
                            "value": 1
                        },
                        "timingPeriod": {
                            "start": "2012-11-01",
                            "end": "2012-12-31"
                        }
                    }
                ],
                "prescription": {
                    "reference": "MedicationPrescription/40",
                    "display": "synthroid - 0.1mg by mouth once daily"
                },
                "contained": [
                    {
                        "id": "med",
                        "resourceType": "Medication",
                        "name": "Levothyroxine Sodium 0.1 MG Oral Tablet",
                        "code": {
                            "coding": [
                                {
                                    "system": "http://www.nlm.nih.gov/research/umls/rxnorm",
                                    "code": "892246",
                                    "display": "Levothyroxine Sodium 0.1 MG Oral Tablet"
                                }
                            ],
                            "text": "Levothyroxine Sodium 0.1 MG Oral Tablet"
                        }
                    }
                ],
                "medication": {
                    "reference": "#med",
                    "display": "Levothyroxine Sodium 0.1 MG Oral Tablet"
                },
                "patient": {
                    "reference": "Patient/0",
                    "display": ", "
                }
            }
        },
        {
            "resource": {
                "id": "MedicationPrescription/42",
                "resourceType": "MedicationPrescription",
                "status": "active",
                "dateWritten": "2012-11-01",
                "dosageInstruction": [
                    {
                        "route": {
                            "coding": [
                                {
                                    "system": "urn:oid:2.16.840.1.113883.3.26.1.1",
                                    "code": "C38288",
                                    "display": "oral"
                                }
                            ],
                            "text": "oral"
                        },
                        "doseQuantity": {
                            "value": 1
                        },
                        "timingSchedule": {
                            "event": [
                                {
                                    "start": "2012-11-01"
                                }
                            ],
                            "repeat": {
                                "frequency": 1,
                                "duration": 12,
                                "units": "h",
                                "end": "2012-12-31"
                            }
                        }
                    }
                ],
                "text": {
                    "status": "generated",
                    "div": "Aleve - 220mg by mouth twice daily"
                },
                "contained": [
                    {
                        "id": "med",
                        "resourceType": "Medication",
                        "name": "Naproxen sodium 220 MG Oral Capsule",
                        "code": {
                            "coding": [
                                {
                                    "system": "http://www.nlm.nih.gov/research/umls/rxnorm",
                                    "code": "1112231",
                                    "display": "Naproxen sodium 220 MG Oral Capsule"
                                }
                            ],
                            "text": "Naproxen sodium 220 MG Oral Capsule"
                        }
                    }
                ],
                "medication": {
                    "reference": "#med",
                    "display": "Naproxen sodium 220 MG Oral Capsule"
                },
                "patient": {
                    "reference": "Patient/0",
                    "display": ", "
                }
            }
        },
        {
            "resource": {
                "id": "MedicationAdministration/43",
                "resourceType": "MedicationAdministration",
                "status": "completed",
                "practitioner": {
                    "reference": "Practitioner/unknown",
                    "display": "Unknown"
                },
                "whenGiven": {
                    "start": "2012-11-01",
                    "end": "2012-12-31"
                },
                "dosage": [
                    {
                        "route": {
                            "coding": [
                                {
                                    "system": "urn:oid:2.16.840.1.113883.3.26.1.1",
                                    "code": "C38288",
                                    "display": "oral"
                                }
                            ],
                            "text": "oral"
                        },
                        "quantity": {
                            "value": 1
                        },
                        "timingPeriod": {
                            "start": "2012-11-01",
                            "end": "2012-12-31"
                        }
                    }
                ],
                "prescription": {
                    "reference": "MedicationPrescription/42",
                    "display": "Aleve - 220mg by mouth twice daily"
                },
                "contained": [
                    {
                        "id": "med",
                        "resourceType": "Medication",
                        "name": "Naproxen sodium 220 MG Oral Capsule",
                        "code": {
                            "coding": [
                                {
                                    "system": "http://www.nlm.nih.gov/research/umls/rxnorm",
                                    "code": "1112231",
                                    "display": "Naproxen sodium 220 MG Oral Capsule"
                                }
                            ],
                            "text": "Naproxen sodium 220 MG Oral Capsule"
                        }
                    }
                ],
                "medication": {
                    "reference": "#med",
                    "display": "Naproxen sodium 220 MG Oral Capsule"
                },
                "patient": {
                    "reference": "Patient/0",
                    "display": ", "
                }
            }
        },
        {
            "resource": {
                "id": "MedicationPrescription/44",
                "resourceType": "MedicationPrescription",
                "status": "active",
                "dateWritten": "2012-11-01",
                "dosageInstruction": [
                    {
                        "route": {
                            "coding": [
                                {
                                    "system": "urn:oid:2.16.840.1.113883.3.26.1.1",
                                    "code": "C38288",
                                    "display": "oral"
                                }
                            ],
                            "text": "oral"
                        },
                        "doseQuantity": {
                            "value": 1
                        },
                        "timingSchedule": {
                            "event": [
                                {
                                    "start": "2012-11-01"
                                }
                            ],
                            "repeat": {
                                "frequency": 1,
                                "duration": 6,
                                "units": "h",
                                "end": "2012-12-31"
                            }
                        }
                    }
                ],
                "text": {
                    "status": "generated",
                    "div": "Ultram - 50mg by mouth four times daily as needed for joint pain"
                },
                "contained": [
                    {
                        "id": "med",
                        "resourceType": "Medication",
                        "name": "traMADol hydrochloride 50 MG Oral Tablet",
                        "code": {
                            "coding": [
                                {
                                    "system": "http://www.nlm.nih.gov/research/umls/rxnorm",
                                    "code": "835603",
                                    "display": "traMADol hydrochloride 50 MG Oral Tablet"
                                }
                            ],
                            "text": "traMADol hydrochloride 50 MG Oral Tablet"
                        }
                    }
                ],
                "medication": {
                    "reference": "#med",
                    "display": "traMADol hydrochloride 50 MG Oral Tablet"
                },
                "patient": {
                    "reference": "Patient/0",
                    "display": ", "
                }
            }
        },
        {
            "resource": {
                "id": "MedicationAdministration/45",
                "resourceType": "MedicationAdministration",
                "status": "completed",
                "practitioner": {
                    "reference": "Practitioner/unknown",
                    "display": "Unknown"
                },
                "whenGiven": {
                    "start": "2012-11-01",
                    "end": "2012-12-31"
                },
                "dosage": [
                    {
                        "route": {
                            "coding": [
                                {
                                    "system": "urn:oid:2.16.840.1.113883.3.26.1.1",
                                    "code": "C38288",
                                    "display": "oral"
                                }
                            ],
                            "text": "oral"
                        },
                        "quantity": {
                            "value": 1
                        },
                        "timingPeriod": {
                            "start": "2012-11-01",
                            "end": "2012-12-31"
                        }
                    }
                ],
                "prescription": {
                    "reference": "MedicationPrescription/44",
                    "display": "Ultram - 50mg by mouth four times daily as needed for joint pain"
                },
                "contained": [
                    {
                        "id": "med",
                        "resourceType": "Medication",
                        "name": "traMADol hydrochloride 50 MG Oral Tablet",
                        "code": {
                            "coding": [
                                {
                                    "system": "http://www.nlm.nih.gov/research/umls/rxnorm",
                                    "code": "835603",
                                    "display": "traMADol hydrochloride 50 MG Oral Tablet"
                                }
                            ],
                            "text": "traMADol hydrochloride 50 MG Oral Tablet"
                        }
                    }
                ],
                "medication": {
                    "reference": "#med",
                    "display": "traMADol hydrochloride 50 MG Oral Tablet"
                },
                "patient": {
                    "reference": "Patient/0",
                    "display": ", "
                }
            }
        },
        {
            "resource": {
                "id": "MedicationPrescription/46",
                "resourceType": "MedicationPrescription",
                "status": "active",
                "dateWritten": "2012-11-01",
                "dosageInstruction": [
                    {
                        "route": {
                            "coding": [
                                {
                                    "system": "urn:oid:2.16.840.1.113883.3.26.1.1",
                                    "code": "C38288",
                                    "display": "oral"
                                }
                            ],
                            "text": "oral"
                        },
                        "doseQuantity": {
                            "value": 1
                        },
                        "timingSchedule": {
                            "event": [
                                {
                                    "start": "2012-11-01"
                                }
                            ],
                            "repeat": {
                                "frequency": 1,
                                "duration": 24,
                                "units": "h",
                                "end": "2012-12-31"
                            }
                        }
                    }
                ],
                "text": {
                    "status": "generated",
                    "div": "Aspirin - 81mg by mouth once daily"
                },
                "contained": [
                    {
                        "id": "med",
                        "resourceType": "Medication",
                        "name": "Aspirin 81 MG Enteric Coated Tablet",
                        "code": {
                            "coding": [
                                {
                                    "system": "http://www.nlm.nih.gov/research/umls/rxnorm",
                                    "code": "308416",
                                    "display": "Aspirin 81 MG Enteric Coated Tablet"
                                }
                            ],
                            "text": "Aspirin 81 MG Enteric Coated Tablet"
                        }
                    }
                ],
                "medication": {
                    "reference": "#med",
                    "display": "Aspirin 81 MG Enteric Coated Tablet"
                },
                "patient": {
                    "reference": "Patient/0",
                    "display": ", "
                }
            }
        },
        {
            "resource": {
                "id": "MedicationAdministration/47",
                "resourceType": "MedicationAdministration",
                "status": "completed",
                "practitioner": {
                    "reference": "Practitioner/unknown",
                    "display": "Unknown"
                },
                "whenGiven": {
                    "start": "2012-11-01",
                    "end": "2012-12-31"
                },
                "dosage": [
                    {
                        "route": {
                            "coding": [
                                {
                                    "system": "urn:oid:2.16.840.1.113883.3.26.1.1",
                                    "code": "C38288",
                                    "display": "oral"
                                }
                            ],
                            "text": "oral"
                        },
                        "quantity": {
                            "value": 1
                        },
                        "timingPeriod": {
                            "start": "2012-11-01",
                            "end": "2012-12-31"
                        }
                    }
                ],
                "prescription": {
                    "reference": "MedicationPrescription/46",
                    "display": "Aspirin - 81mg by mouth once daily"
                },
                "contained": [
                    {
                        "id": "med",
                        "resourceType": "Medication",
                        "name": "Aspirin 81 MG Enteric Coated Tablet",
                        "code": {
                            "coding": [
                                {
                                    "system": "http://www.nlm.nih.gov/research/umls/rxnorm",
                                    "code": "308416",
                                    "display": "Aspirin 81 MG Enteric Coated Tablet"
                                }
                            ],
                            "text": "Aspirin 81 MG Enteric Coated Tablet"
                        }
                    }
                ],
                "medication": {
                    "reference": "#med",
                    "display": "Aspirin 81 MG Enteric Coated Tablet"
                },
                "patient": {
                    "reference": "Patient/0",
                    "display": ", "
                }
            }
        },
        {
            "resource": {
                "id": "MedicationPrescription/48",
                "resourceType": "MedicationPrescription",
                "status": "active",
                "dateWritten": "2012-11-01",
                "dosageInstruction": [
                    {
                        "route": {
                            "coding": [
                                {
                                    "system": "urn:oid:2.16.840.1.113883.3.26.1.1",
                                    "code": "C38288",
                                    "display": "oral"
                                }
                            ],
                            "text": "oral"
                        },
                        "doseQuantity": {
                            "value": 1
                        },
                        "timingSchedule": {
                            "event": [
                                {
                                    "start": "2012-11-01"
                                }
                            ],
                            "repeat": {
                                "frequency": 1,
                                "duration": 12,
                                "units": "h",
                                "end": "2012-12-31"
                            }
                        }
                    }
                ],
                "text": {
                    "status": "generated",
                    "div": "Lopressor - 50mg by mouth twice daily"
                },
                "contained": [
                    {
                        "id": "med",
                        "resourceType": "Medication",
                        "name": "Metoprolol Tartrate 50 MG Oral Tablet",
                        "code": {
                            "coding": [
                                {
                                    "system": "http://www.nlm.nih.gov/research/umls/rxnorm",
                                    "code": "866514",
                                    "display": "Metoprolol Tartrate 50 MG Oral Tablet"
                                }
                            ],
                            "text": "Metoprolol Tartrate 50 MG Oral Tablet"
                        }
                    }
                ],
                "medication": {
                    "reference": "#med",
                    "display": "Metoprolol Tartrate 50 MG Oral Tablet"
                },
                "patient": {
                    "reference": "Patient/0",
                    "display": ", "
                }
            }
        },
        {
            "resource": {
                "id": "MedicationAdministration/49",
                "resourceType": "MedicationAdministration",
                "status": "completed",
                "practitioner": {
                    "reference": "Practitioner/unknown",
                    "display": "Unknown"
                },
                "whenGiven": {
                    "start": "2012-11-01",
                    "end": "2012-12-31"
                },
                "dosage": [
                    {
                        "route": {
                            "coding": [
                                {
                                    "system": "urn:oid:2.16.840.1.113883.3.26.1.1",
                                    "code": "C38288",
                                    "display": "oral"
                                }
                            ],
                            "text": "oral"
                        },
                        "quantity": {
                            "value": 1
                        },
                        "timingPeriod": {
                            "start": "2012-11-01",
                            "end": "2012-12-31"
                        }
                    }
                ],
                "prescription": {
                    "reference": "MedicationPrescription/48",
                    "display": "Lopressor - 50mg by mouth twice daily"
                },
                "contained": [
                    {
                        "id": "med",
                        "resourceType": "Medication",
                        "name": "Metoprolol Tartrate 50 MG Oral Tablet",
                        "code": {
                            "coding": [
                                {
                                    "system": "http://www.nlm.nih.gov/research/umls/rxnorm",
                                    "code": "866514",
                                    "display": "Metoprolol Tartrate 50 MG Oral Tablet"
                                }
                            ],
                            "text": "Metoprolol Tartrate 50 MG Oral Tablet"
                        }
                    }
                ],
                "medication": {
                    "reference": "#med",
                    "display": "Metoprolol Tartrate 50 MG Oral Tablet"
                },
                "patient": {
                    "reference": "Patient/0",
                    "display": ", "
                }
            }
        },
        {
            "resource": {
                "id": "MedicationPrescription/50",
                "resourceType": "MedicationPrescription",
                "status": "active",
                "dateWritten": "2012-11-01",
                "dosageInstruction": [
                    {
                        "route": {
                            "coding": [
                                {
                                    "system": "urn:oid:2.16.840.1.113883.3.26.1.1",
                                    "code": "C38288",
                                    "display": "oral"
                                }
                            ],
                            "text": "oral"
                        },
                        "doseQuantity": {
                            "value": 1
                        },
                        "timingSchedule": {
                            "event": [
                                {
                                    "start": "2012-11-01"
                                }
                            ],
                            "repeat": {
                                "frequency": 1,
                                "duration": 24,
                                "units": "h",
                                "end": "2012-12-31"
                            }
                        }
                    }
                ],
                "text": {
                    "status": "generated",
                    "div": "Flomax - 0.4mg by mouth once daily"
                },
                "contained": [
                    {
                        "id": "med",
                        "resourceType": "Medication",
                        "name": "Flomax 0.4 MG Oral Capsule",
                        "code": {
                            "coding": [
                                {
                                    "system": "http://www.nlm.nih.gov/research/umls/rxnorm",
                                    "code": "863671",
                                    "display": "Flomax 0.4 MG Oral Capsule"
                                }
                            ],
                            "text": "Flomax 0.4 MG Oral Capsule"
                        }
                    }
                ],
                "medication": {
                    "reference": "#med",
                    "display": "Flomax 0.4 MG Oral Capsule"
                },
                "patient": {
                    "reference": "Patient/0",
                    "display": ", "
                }
            }
        },
        {
            "resource": {
                "id": "MedicationAdministration/51",
                "resourceType": "MedicationAdministration",
                "status": "completed",
                "practitioner": {
                    "reference": "Practitioner/unknown",
                    "display": "Unknown"
                },
                "whenGiven": {
                    "start": "2012-11-01",
                    "end": "2012-12-31"
                },
                "dosage": [
                    {
                        "route": {
                            "coding": [
                                {
                                    "system": "urn:oid:2.16.840.1.113883.3.26.1.1",
                                    "code": "C38288",
                                    "display": "oral"
                                }
                            ],
                            "text": "oral"
                        },
                        "quantity": {
                            "value": 1
                        },
                        "timingPeriod": {
                            "start": "2012-11-01",
                            "end": "2012-12-31"
                        }
                    }
                ],
                "prescription": {
                    "reference": "MedicationPrescription/50",
                    "display": "Flomax - 0.4mg by mouth once daily"
                },
                "contained": [
                    {
                        "id": "med",
                        "resourceType": "Medication",
                        "name": "Flomax 0.4 MG Oral Capsule",
                        "code": {
                            "coding": [
                                {
                                    "system": "http://www.nlm.nih.gov/research/umls/rxnorm",
                                    "code": "863671",
                                    "display": "Flomax 0.4 MG Oral Capsule"
                                }
                            ],
                            "text": "Flomax 0.4 MG Oral Capsule"
                        }
                    }
                ],
                "medication": {
                    "reference": "#med",
                    "display": "Flomax 0.4 MG Oral Capsule"
                },
                "patient": {
                    "reference": "Patient/0",
                    "display": ", "
                }
            }
        },
        {
            "resource": {
                "id": "MedicationPrescription/52",
                "resourceType": "MedicationPrescription",
                "status": "active",
                "dateWritten": "2012-11-01",
                "dosageInstruction": [
                    {
                        "route": {
                            "coding": [
                                {
                                    "system": "urn:oid:2.16.840.1.113883.3.26.1.1",
                                    "code": "C38288",
                                    "display": "oral"
                                }
                            ],
                            "text": "oral"
                        },
                        "doseQuantity": {
                            "value": 1
                        },
                        "timingSchedule": {
                            "event": [
                                {
                                    "start": "2012-11-01"
                                }
                            ],
                            "repeat": {
                                "frequency": 1,
                                "duration": 24,
                                "units": "h",
                                "end": "2012-12-31"
                            }
                        }
                    }
                ],
                "text": {
                    "status": "generated",
                    "div": "Proscar - 5mg by mouth once daily"
                },
                "contained": [
                    {
                        "id": "med",
                        "resourceType": "Medication",
                        "name": "Proscar 5 MG Oral Tablet",
                        "code": {
                            "coding": [
                                {
                                    "system": "http://www.nlm.nih.gov/research/umls/rxnorm",
                                    "code": "201961",
                                    "display": "Proscar 5 MG Oral Tablet"
                                }
                            ],
                            "text": "Proscar 5 MG Oral Tablet"
                        }
                    }
                ],
                "medication": {
                    "reference": "#med",
                    "display": "Proscar 5 MG Oral Tablet"
                },
                "patient": {
                    "reference": "Patient/0",
                    "display": ", "
                }
            }
        },
        {
            "resource": {
                "id": "MedicationAdministration/53",
                "resourceType": "MedicationAdministration",
                "status": "completed",
                "practitioner": {
                    "reference": "Practitioner/unknown",
                    "display": "Unknown"
                },
                "whenGiven": {
                    "start": "2012-11-01",
                    "end": "2012-12-31"
                },
                "dosage": [
                    {
                        "route": {
                            "coding": [
                                {
                                    "system": "urn:oid:2.16.840.1.113883.3.26.1.1",
                                    "code": "C38288",
                                    "display": "oral"
                                }
                            ],
                            "text": "oral"
                        },
                        "quantity": {
                            "value": 1
                        },
                        "timingPeriod": {
                            "start": "2012-11-01",
                            "end": "2012-12-31"
                        }
                    }
                ],
                "prescription": {
                    "reference": "MedicationPrescription/52",
                    "display": "Proscar - 5mg by mouth once daily"
                },
                "contained": [
                    {
                        "id": "med",
                        "resourceType": "Medication",
                        "name": "Proscar 5 MG Oral Tablet",
                        "code": {
                            "coding": [
                                {
                                    "system": "http://www.nlm.nih.gov/research/umls/rxnorm",
                                    "code": "201961",
                                    "display": "Proscar 5 MG Oral Tablet"
                                }
                            ],
                            "text": "Proscar 5 MG Oral Tablet"
                        }
                    }
                ],
                "medication": {
                    "reference": "#med",
                    "display": "Proscar 5 MG Oral Tablet"
                },
                "patient": {
                    "reference": "Patient/0",
                    "display": ", "
                }
            }
        },
        {
            "resource": {
                "id": "MedicationPrescription/54",
                "resourceType": "MedicationPrescription",
                "status": "active",
                "dateWritten": "2012-11-01",
                "dosageInstruction": [
                    {
                        "route": {
                            "coding": [
                                {
                                    "system": "urn:oid:2.16.840.1.113883.3.26.1.1",
                                    "code": "C38288",
                                    "display": "oral"
                                }
                            ],
                            "text": "oral"
                        },
                        "doseQuantity": {
                            "value": 1
                        },
                        "timingSchedule": {
                            "event": [
                                {
                                    "start": "2012-11-01"
                                }
                            ],
                            "repeat": {
                                "frequency": 1,
                                "duration": 8,
                                "units": "h",
                                "end": "2012-12-31"
                            }
                        }
                    }
                ],
                "text": {
                    "status": "generated",
                    "div": "Neurontin - 300mg by mouth three times daily"
                },
                "contained": [
                    {
                        "id": "med",
                        "resourceType": "Medication",
                        "name": "Neurontin 300 MG Oral Capsule",
                        "code": {
                            "coding": [
                                {
                                    "system": "http://www.nlm.nih.gov/research/umls/rxnorm",
                                    "code": "105029",
                                    "display": "Neurontin 300 MG Oral Capsule"
                                }
                            ],
                            "text": "Neurontin 300 MG Oral Capsule"
                        }
                    }
                ],
                "medication": {
                    "reference": "#med",
                    "display": "Neurontin 300 MG Oral Capsule"
                },
                "patient": {
                    "reference": "Patient/0",
                    "display": ", "
                }
            }
        },
        {
            "resource": {
                "id": "MedicationAdministration/55",
                "resourceType": "MedicationAdministration",
                "status": "completed",
                "practitioner": {
                    "reference": "Practitioner/unknown",
                    "display": "Unknown"
                },
                "whenGiven": {
                    "start": "2012-11-01",
                    "end": "2012-12-31"
                },
                "dosage": [
                    {
                        "route": {
                            "coding": [
                                {
                                    "system": "urn:oid:2.16.840.1.113883.3.26.1.1",
                                    "code": "C38288",
                                    "display": "oral"
                                }
                            ],
                            "text": "oral"
                        },
                        "quantity": {
                            "value": 1
                        },
                        "timingPeriod": {
                            "start": "2012-11-01",
                            "end": "2012-12-31"
                        }
                    }
                ],
                "prescription": {
                    "reference": "MedicationPrescription/54",
                    "display": "Neurontin - 300mg by mouth three times daily"
                },
                "contained": [
                    {
                        "id": "med",
                        "resourceType": "Medication",
                        "name": "Neurontin 300 MG Oral Capsule",
                        "code": {
                            "coding": [
                                {
                                    "system": "http://www.nlm.nih.gov/research/umls/rxnorm",
                                    "code": "105029",
                                    "display": "Neurontin 300 MG Oral Capsule"
                                }
                            ],
                            "text": "Neurontin 300 MG Oral Capsule"
                        }
                    }
                ],
                "medication": {
                    "reference": "#med",
                    "display": "Neurontin 300 MG Oral Capsule"
                },
                "patient": {
                    "reference": "Patient/0",
                    "display": ", "
                }
            }
        },
        {
            "resource": {
                "id": "MedicationPrescription/56",
                "resourceType": "MedicationPrescription",
                "status": "active",
                "dateWritten": "2012-11-01",
                "dosageInstruction": [
                    {
                        "route": {
                            "coding": [
                                {
                                    "system": "urn:oid:2.16.840.1.113883.3.26.1.1",
                                    "code": "C38288",
                                    "display": "oral"
                                }
                            ],
                            "text": "oral"
                        },
                        "doseQuantity": {
                            "value": 1
                        },
                        "timingSchedule": {
                            "event": [
                                {
                                    "start": "2012-11-01"
                                }
                            ],
                            "repeat": {
                                "frequency": 1,
                                "duration": 8,
                                "units": "h",
                                "end": "2012-12-31"
                            }
                        }
                    }
                ],
                "text": {
                    "status": "generated",
                    "div": "Ativan - 1mg by mouth three times daily as needed for irritability"
                },
                "contained": [
                    {
                        "id": "med",
                        "resourceType": "Medication",
                        "name": "Lorazepam 0.5 MG Oral Tablet",
                        "code": {
                            "coding": [
                                {
                                    "system": "http://www.nlm.nih.gov/research/umls/rxnorm",
                                    "code": "197900",
                                    "display": "Lorazepam 0.5 MG Oral Tablet"
                                }
                            ],
                            "text": "Lorazepam 0.5 MG Oral Tablet"
                        }
                    }
                ],
                "medication": {
                    "reference": "#med",
                    "display": "Lorazepam 0.5 MG Oral Tablet"
                },
                "patient": {
                    "reference": "Patient/0",
                    "display": ", "
                }
            }
        },
        {
            "resource": {
                "id": "MedicationAdministration/57",
                "resourceType": "MedicationAdministration",
                "status": "completed",
                "practitioner": {
                    "reference": "Practitioner/unknown",
                    "display": "Unknown"
                },
                "whenGiven": {
                    "start": "2012-11-01",
                    "end": "2012-12-31"
                },
                "dosage": [
                    {
                        "route": {
                            "coding": [
                                {
                                    "system": "urn:oid:2.16.840.1.113883.3.26.1.1",
                                    "code": "C38288",
                                    "display": "oral"
                                }
                            ],
                            "text": "oral"
                        },
                        "quantity": {
                            "value": 1
                        },
                        "timingPeriod": {
                            "start": "2012-11-01",
                            "end": "2012-12-31"
                        }
                    }
                ],
                "prescription": {
                    "reference": "MedicationPrescription/56",
                    "display": "Ativan - 1mg by mouth three times daily as needed for irritability"
                },
                "contained": [
                    {
                        "id": "med",
                        "resourceType": "Medication",
                        "name": "Lorazepam 0.5 MG Oral Tablet",
                        "code": {
                            "coding": [
                                {
                                    "system": "http://www.nlm.nih.gov/research/umls/rxnorm",
                                    "code": "197900",
                                    "display": "Lorazepam 0.5 MG Oral Tablet"
                                }
                            ],
                            "text": "Lorazepam 0.5 MG Oral Tablet"
                        }
                    }
                ],
                "medication": {
                    "reference": "#med",
                    "display": "Lorazepam 0.5 MG Oral Tablet"
                },
                "patient": {
                    "reference": "Patient/0",
                    "display": ", "
                }
            }
        },
        {
            "resource": {
                "id": "MedicationPrescription/58",
                "resourceType": "MedicationPrescription",
                "status": "active",
                "dateWritten": "2012-11-01",
                "dosageInstruction": [
                    {
                        "route": {
                            "coding": [
                                {
                                    "system": "urn:oid:2.16.840.1.113883.3.26.1.1",
                                    "code": "C38288",
                                    "display": "oral"
                                }
                            ],
                            "text": "oral"
                        },
                        "doseQuantity": {
                            "value": 1
                        },
                        "timingSchedule": {
                            "event": [
                                {
                                    "start": "2012-11-01"
                                }
                            ],
                            "repeat": {
                                "frequency": 1,
                                "duration": 12,
                                "units": "h",
                                "end": "2012-12-31"
                            }
                        }
                    }
                ],
                "text": {
                    "status": "generated",
                    "div": "miodarone - 200mg by mouth two times daily"
                },
                "contained": [
                    {
                        "id": "med",
                        "resourceType": "Medication",
                        "name": "Cordarone 200 MG Oral Tablet",
                        "code": {
                            "coding": [
                                {
                                    "system": "http://www.nlm.nih.gov/research/umls/rxnorm",
                                    "code": "833530",
                                    "display": "Cordarone 200 MG Oral Tablet"
                                }
                            ],
                            "text": "Cordarone 200 MG Oral Tablet"
                        }
                    }
                ],
                "medication": {
                    "reference": "#med",
                    "display": "Cordarone 200 MG Oral Tablet"
                },
                "patient": {
                    "reference": "Patient/0",
                    "display": ", "
                }
            }
        },
        {
            "resource": {
                "id": "MedicationAdministration/59",
                "resourceType": "MedicationAdministration",
                "status": "completed",
                "practitioner": {
                    "reference": "Practitioner/unknown",
                    "display": "Unknown"
                },
                "whenGiven": {
                    "start": "2012-11-01",
                    "end": "2012-12-31"
                },
                "dosage": [
                    {
                        "route": {
                            "coding": [
                                {
                                    "system": "urn:oid:2.16.840.1.113883.3.26.1.1",
                                    "code": "C38288",
                                    "display": "oral"
                                }
                            ],
                            "text": "oral"
                        },
                        "quantity": {
                            "value": 1
                        },
                        "timingPeriod": {
                            "start": "2012-11-01",
                            "end": "2012-12-31"
                        }
                    }
                ],
                "prescription": {
                    "reference": "MedicationPrescription/58",
                    "display": "miodarone - 200mg by mouth two times daily"
                },
                "contained": [
                    {
                        "id": "med",
                        "resourceType": "Medication",
                        "name": "Cordarone 200 MG Oral Tablet",
                        "code": {
                            "coding": [
                                {
                                    "system": "http://www.nlm.nih.gov/research/umls/rxnorm",
                                    "code": "833530",
                                    "display": "Cordarone 200 MG Oral Tablet"
                                }
                            ],
                            "text": "Cordarone 200 MG Oral Tablet"
                        }
                    }
                ],
                "medication": {
                    "reference": "#med",
                    "display": "Cordarone 200 MG Oral Tablet"
                },
                "patient": {
                    "reference": "Patient/0",
                    "display": ", "
                }
            }
        },
        {
            "resource": {
                "id": "MedicationPrescription/60",
                "resourceType": "MedicationPrescription",
                "status": "active",
                "dateWritten": "2012-11-01",
                "dosageInstruction": [
                    {
                        "route": {
                            "coding": [
                                {
                                    "system": "urn:oid:2.16.840.1.113883.3.26.1.1",
                                    "code": "C38288",
                                    "display": "oral"
                                }
                            ],
                            "text": "oral"
                        },
                        "doseQuantity": {
                            "value": 1
                        },
                        "timingSchedule": {
                            "event": [
                                {
                                    "start": "2012-11-01"
                                }
                            ],
                            "repeat": {
                                "frequency": 1,
                                "duration": 2,
                                "units": "d",
                                "end": "2012-12-31"
                            }
                        }
                    }
                ],
                "text": {
                    "status": "generated",
                    "div": "Coumadin - 5mg by mouth every other day starting 11/1/2012"
                },
                "contained": [
                    {
                        "id": "med",
                        "resourceType": "Medication",
                        "name": "Warfarin Sodium 5 MG Oral Tablet",
                        "code": {
                            "coding": [
                                {
                                    "system": "http://www.nlm.nih.gov/research/umls/rxnorm",
                                    "code": "855332",
                                    "display": "Warfarin Sodium 5 MG Oral Tablet"
                                }
                            ],
                            "text": "Warfarin Sodium 5 MG Oral Tablet"
                        }
                    }
                ],
                "medication": {
                    "reference": "#med",
                    "display": "Warfarin Sodium 5 MG Oral Tablet"
                },
                "patient": {
                    "reference": "Patient/0",
                    "display": ", "
                }
            }
        },
        {
            "resource": {
                "id": "MedicationAdministration/61",
                "resourceType": "MedicationAdministration",
                "status": "completed",
                "practitioner": {
                    "reference": "Practitioner/unknown",
                    "display": "Unknown"
                },
                "whenGiven": {
                    "start": "2012-11-01",
                    "end": "2012-12-31"
                },
                "dosage": [
                    {
                        "route": {
                            "coding": [
                                {
                                    "system": "urn:oid:2.16.840.1.113883.3.26.1.1",
                                    "code": "C38288",
                                    "display": "oral"
                                }
                            ],
                            "text": "oral"
                        },
                        "quantity": {
                            "value": 1
                        },
                        "timingPeriod": {
                            "start": "2012-11-01",
                            "end": "2012-12-31"
                        }
                    }
                ],
                "prescription": {
                    "reference": "MedicationPrescription/60",
                    "display": "Coumadin - 5mg by mouth every other day starting 11/1/2012"
                },
                "contained": [
                    {
                        "id": "med",
                        "resourceType": "Medication",
                        "name": "Warfarin Sodium 5 MG Oral Tablet",
                        "code": {
                            "coding": [
                                {
                                    "system": "http://www.nlm.nih.gov/research/umls/rxnorm",
                                    "code": "855332",
                                    "display": "Warfarin Sodium 5 MG Oral Tablet"
                                }
                            ],
                            "text": "Warfarin Sodium 5 MG Oral Tablet"
                        }
                    }
                ],
                "medication": {
                    "reference": "#med",
                    "display": "Warfarin Sodium 5 MG Oral Tablet"
                },
                "patient": {
                    "reference": "Patient/0",
                    "display": ", "
                }
            }
        },
        {
            "resource": {
                "id": "MedicationPrescription/62",
                "resourceType": "MedicationPrescription",
                "status": "active",
                "dateWritten": "2012-11-01",
                "dosageInstruction": [
                    {
                        "route": {
                            "coding": [
                                {
                                    "system": "urn:oid:2.16.840.1.113883.3.26.1.1",
                                    "code": "C38288",
                                    "display": "oral"
                                }
                            ],
                            "text": "oral"
                        },
                        "doseQuantity": {
                            "value": 1
                        },
                        "timingSchedule": {
                            "event": [
                                {
                                    "start": "2012-11-01"
                                }
                            ],
                            "repeat": {
                                "frequency": 1,
                                "duration": 2,
                                "units": "d",
                                "end": "2012-12-31"
                            }
                        }
                    }
                ],
                "text": {
                    "status": "generated",
                    "div": "Coumadin - 2.5mg by mouth every other day starting 11/2/2012"
                },
                "contained": [
                    {
                        "id": "med",
                        "resourceType": "Medication",
                        "name": "Warfarin Sodium 2.5 MG Oral Tablet",
                        "code": {
                            "coding": [
                                {
                                    "system": "http://www.nlm.nih.gov/research/umls/rxnorm",
                                    "code": "855312",
                                    "display": "Warfarin Sodium 2.5 MG Oral Tablet"
                                }
                            ],
                            "text": "Warfarin Sodium 2.5 MG Oral Tablet"
                        }
                    }
                ],
                "medication": {
                    "reference": "#med",
                    "display": "Warfarin Sodium 2.5 MG Oral Tablet"
                },
                "patient": {
                    "reference": "Patient/0",
                    "display": ", "
                }
            }
        },
        {
            "resource": {
                "id": "MedicationAdministration/63",
                "resourceType": "MedicationAdministration",
                "status": "completed",
                "practitioner": {
                    "reference": "Practitioner/unknown",
                    "display": "Unknown"
                },
                "whenGiven": {
                    "start": "2012-11-01",
                    "end": "2012-12-31"
                },
                "dosage": [
                    {
                        "route": {
                            "coding": [
                                {
                                    "system": "urn:oid:2.16.840.1.113883.3.26.1.1",
                                    "code": "C38288",
                                    "display": "oral"
                                }
                            ],
                            "text": "oral"
                        },
                        "quantity": {
                            "value": 1
                        },
                        "timingPeriod": {
                            "start": "2012-11-01",
                            "end": "2012-12-31"
                        }
                    }
                ],
                "prescription": {
                    "reference": "MedicationPrescription/62",
                    "display": "Coumadin - 2.5mg by mouth every other day starting 11/2/2012"
                },
                "contained": [
                    {
                        "id": "med",
                        "resourceType": "Medication",
                        "name": "Warfarin Sodium 2.5 MG Oral Tablet",
                        "code": {
                            "coding": [
                                {
                                    "system": "http://www.nlm.nih.gov/research/umls/rxnorm",
                                    "code": "855312",
                                    "display": "Warfarin Sodium 2.5 MG Oral Tablet"
                                }
                            ],
                            "text": "Warfarin Sodium 2.5 MG Oral Tablet"
                        }
                    }
                ],
                "medication": {
                    "reference": "#med",
                    "display": "Warfarin Sodium 2.5 MG Oral Tablet"
                },
                "patient": {
                    "reference": "Patient/0",
                    "display": ", "
                }
            }
        },
        {
            "resource": {
                "id": "MedicationPrescription/64",
                "resourceType": "MedicationPrescription",
                "status": "active",
                "dateWritten": "2012-11-01",
                "dosageInstruction": [
                    {
                        "route": {
                            "coding": [
                                {
                                    "system": "urn:oid:2.16.840.1.113883.3.26.1.1",
                                    "code": "C38288",
                                    "display": "oral"
                                }
                            ],
                            "text": "oral"
                        },
                        "doseQuantity": {
                            "value": 1
                        },
                        "timingSchedule": {
                            "event": [
                                {
                                    "start": "2012-11-01"
                                }
                            ],
                            "repeat": {
                                "frequency": 1,
                                "duration": 1,
                                "units": "s",
                                "end": "2012-12-31"
                            }
                        }
                    }
                ],
                "text": {
                    "status": "generated",
                    "div": "Ambien - 5mg by mouth once daily before bed"
                },
                "contained": [
                    {
                        "id": "med",
                        "resourceType": "Medication",
                        "name": "Ambien 5 MG Oral Tablet",
                        "code": {
                            "coding": [
                                {
                                    "system": "http://www.nlm.nih.gov/research/umls/rxnorm",
                                    "code": "854878",
                                    "display": "Ambien 5 MG Oral Tablet"
                                }
                            ],
                            "text": "Ambien 5 MG Oral Tablet"
                        }
                    }
                ],
                "medication": {
                    "reference": "#med",
                    "display": "Ambien 5 MG Oral Tablet"
                },
                "patient": {
                    "reference": "Patient/0",
                    "display": ", "
                }
            }
        },
        {
            "resource": {
                "id": "MedicationAdministration/65",
                "resourceType": "MedicationAdministration",
                "status": "completed",
                "practitioner": {
                    "reference": "Practitioner/unknown",
                    "display": "Unknown"
                },
                "whenGiven": {
                    "start": "2012-11-01",
                    "end": "2012-12-31"
                },
                "dosage": [
                    {
                        "route": {
                            "coding": [
                                {
                                    "system": "urn:oid:2.16.840.1.113883.3.26.1.1",
                                    "code": "C38288",
                                    "display": "oral"
                                }
                            ],
                            "text": "oral"
                        },
                        "quantity": {
                            "value": 1
                        },
                        "timingPeriod": {
                            "start": "2012-11-01",
                            "end": "2012-12-31"
                        }
                    }
                ],
                "prescription": {
                    "reference": "MedicationPrescription/64",
                    "display": "Ambien - 5mg by mouth once daily before bed"
                },
                "contained": [
                    {
                        "id": "med",
                        "resourceType": "Medication",
                        "name": "Ambien 5 MG Oral Tablet",
                        "code": {
                            "coding": [
                                {
                                    "system": "http://www.nlm.nih.gov/research/umls/rxnorm",
                                    "code": "854878",
                                    "display": "Ambien 5 MG Oral Tablet"
                                }
                            ],
                            "text": "Ambien 5 MG Oral Tablet"
                        }
                    }
                ],
                "medication": {
                    "reference": "#med",
                    "display": "Ambien 5 MG Oral Tablet"
                },
                "patient": {
                    "reference": "Patient/0",
                    "display": ", "
                }
            }
        }
    ]
}