{
    "resourceType": "Bundle",
    "totalResults": 30,
    "entry": [
        {
            "id": "AdverseReaction/57fa12ed-92da-4a70-a54a-c1541e1fa506",
            "content": {
                "resourceType": "AdverseReaction",
                "symptom": [
                    {
                        "code": {
                            "coding": [
                                {
                                    "system": "http://snomed.info/sct",
                                    "code": "422587007",
                                    "display": "Nausea (finding)"
                                }
                            ],
                            "text": "Nausea (finding)"
                        }
                    }
                ],
                "didNotOccurFlag": false
            }
        },
        {
            "id": "AllergyIntolerance/ff8ce261-8af3-45a1-bd77-95dd6681b226",
            "content": {
                "resourceType": "AllergyIntolerance",
                "criticality": "medium",
                "sensitivityType": "allergy",
                "status": "confirmed",
                "contained": [
                    {
                        "id": "allergen",
                        "resourceType": "Substance",
                        "type": {
                            "coding": [
                                {
                                    "system": "http://www.nlm.nih.gov/research/umls/rxnorm",
                                    "code": "2670",
                                    "display": "Codeine"
                                }
                            ],
                            "text": "Codeine"
                        }
                    }
                ],
                "substance": {
                    "reference": "#allergen",
                    "display": "Codeine"
                },
                "reaction": [
                    {
                        "reference": "AdverseReaction/57fa12ed-92da-4a70-a54a-c1541e1fa506",
                        "display": "Nausea (finding)"
                    }
                ]
            }
        },
        {
            "id": "AdverseReaction/10e7c7c1-039d-4f0b-9298-b2228e30d574",
            "content": {
                "resourceType": "AdverseReaction",
                "symptom": [
                    {
                        "code": {
                            "coding": [
                                {
                                    "system": "http://snomed.info/sct",
                                    "code": "247472004",
                                    "display": "Weal (disorder)"
                                }
                            ],
                            "text": "Weal (disorder)"
                        }
                    }
                ],
                "didNotOccurFlag": false
            }
        },
        {
            "id": "AllergyIntolerance/62aef7c8-65f2-4d33-b179-1c0855020be5",
            "content": {
                "resourceType": "AllergyIntolerance",
                "criticality": "medium",
                "sensitivityType": "allergy",
                "status": "confirmed",
                "contained": [
                    {
                        "id": "allergen",
                        "resourceType": "Substance",
                        "type": {
                            "coding": [
                                {
                                    "system": "http://www.nlm.nih.gov/research/umls/rxnorm",
                                    "code": "7980",
                                    "display": "Penicillin G"
                                }
                            ],
                            "text": "Penicillin G"
                        }
                    }
                ],
                "substance": {
                    "reference": "#allergen",
                    "display": "Penicillin G"
                },
                "reaction": [
                    {
                        "reference": "AdverseReaction/10e7c7c1-039d-4f0b-9298-b2228e30d574",
                        "display": "Weal (disorder)"
                    }
                ]
            }
        },
        {
            "id": "Observation/fd3a33fd-2b84-47ae-9e4f-0c4bc2b9b87e",
            "content": {
                "resourceType": "Observation",
                "name": {
                    "coding": [
                        {
                            "system": "http://loinc.org",
                            "code": "3139-2"
                        }
                    ]
                },
                "valueQuantity": {
                    "value": 2.01,
                    "units": "mm2",
                    "code": "mm2",
                    "system": "http://unitsofmeasure.org"
                },
                "issued": "2013-07-11T03:00:00.000Z",
                "status": "final",
                "reliability": "ok",
                "extension": [
                    {
                        "url": "http://amida.com/fhir/Profile/extensions#observation-type",
                        "valueCoding": {
                            "code": "8716-3",
                            "display": "Vital signs",
                            "system": "http://loinc.org"
                        }
                    }
                ]
            }
        },
        {
            "id": "Observation/f8e0c94f-2f61-4421-a05e-0b0cb220c217",
            "content": {
                "resourceType": "Observation",
                "name": {
                    "coding": [
                        {
                            "system": "http://loinc.org",
                            "code": "8462-4"
                        }
                    ]
                },
                "valueQuantity": {
                    "value": 95,
                    "units": "mm[Hg]",
                    "code": "mm[Hg]",
                    "system": "http://unitsofmeasure.org"
                },
                "issued": "2013-07-11T03:00:00.000Z",
                "status": "final",
                "reliability": "ok",
                "extension": [
                    {
                        "url": "http://amida.com/fhir/Profile/extensions#observation-type",
                        "valueCoding": {
                            "code": "8716-3",
                            "display": "Vital signs",
                            "system": "http://loinc.org"
                        }
                    }
                ],
                "interpretation": {
                    "coding": [
                        {
                            "system": "http://hl7.org/fhir/v2/0078",
                            "code": "H",
                            "display": "High"
                        }
                    ],
                    "text": "High"
                }
            }
        },
        {
            "id": "Observation/979c7141-43a0-49f5-b65f-b033d9b347b0",
            "content": {
                "resourceType": "Observation",
                "name": {
                    "coding": [
                        {
                            "system": "http://loinc.org",
                            "code": "3141-9"
                        }
                    ]
                },
                "valueQuantity": {
                    "value": 82,
                    "units": "kg",
                    "code": "kg",
                    "system": "http://unitsofmeasure.org"
                },
                "issued": "2013-07-11T03:00:00.000Z",
                "status": "final",
                "reliability": "ok",
                "extension": [
                    {
                        "url": "http://amida.com/fhir/Profile/extensions#observation-type",
                        "valueCoding": {
                            "code": "8716-3",
                            "display": "Vital signs",
                            "system": "http://loinc.org"
                        }
                    }
                ]
            }
        },
        {
            "id": "Observation/73345925-c9bf-4556-8717-205d0e0ec0e3",
            "content": {
                "resourceType": "Observation",
                "name": {
                    "coding": [
                        {
                            "system": "http://loinc.org",
                            "code": "8302-2"
                        }
                    ]
                },
                "valueQuantity": {
                    "value": 178,
                    "units": "cm",
                    "code": "cm",
                    "system": "http://unitsofmeasure.org"
                },
                "issued": "2013-07-11T03:00:00.000Z",
                "status": "final",
                "reliability": "ok",
                "extension": [
                    {
                        "url": "http://amida.com/fhir/Profile/extensions#observation-type",
                        "valueCoding": {
                            "code": "8716-3",
                            "display": "Vital signs",
                            "system": "http://loinc.org"
                        }
                    }
                ]
            }
        },
        {
            "id": "Observation/1d25e86b-0904-4bd7-aff8-190e82d4a588",
            "content": {
                "resourceType": "Observation",
                "name": {
                    "coding": [
                        {
                            "system": "http://loinc.org",
                            "code": "8480-6"
                        }
                    ]
                },
                "valueQuantity": {
                    "value": 150,
                    "units": "mm[Hg]",
                    "code": "mm[Hg]",
                    "system": "http://unitsofmeasure.org"
                },
                "issued": "2013-07-11T03:00:00.000Z",
                "status": "final",
                "reliability": "ok",
                "extension": [
                    {
                        "url": "http://amida.com/fhir/Profile/extensions#observation-type",
                        "valueCoding": {
                            "code": "8716-3",
                            "display": "Vital signs",
                            "system": "http://loinc.org"
                        }
                    }
                ],
                "interpretation": {
                    "coding": [
                        {
                            "system": "http://hl7.org/fhir/v2/0078",
                            "code": "H",
                            "display": "High"
                        }
                    ],
                    "text": "High"
                }
            }
        },
        {
            "id": "Observation/60df8717-6204-4bdd-b42a-b90ecd912e92",
            "content": {
                "resourceType": "Observation",
                "name": {
                    "coding": [
                        {
                            "system": "http://loinc.org",
                            "code": "35094-2",
                            "display": "Blood pressure panel"
                        }
                    ],
                    "text": "Blood pressure panel"
                },
                "issued": "2013-07-11T03:00:00.000Z",
                "status": "final",
                "reliability": "ok",
                "extension": [
                    {
                        "url": "http://amida.com/fhir/Profile/extensions#observation-type",
                        "valueCoding": {
                            "code": "8716-3",
                            "display": "Vital signs",
                            "system": "http://loinc.org"
                        }
                    }
                ],
                "related": [
                    {
                        "type": "has-component",
                        "target": {
                            "reference": "Observation/f8e0c94f-2f61-4421-a05e-0b0cb220c217"
                        }
                    },
                    {
                        "type": "has-component",
                        "target": {
                            "reference": "Observation/1d25e86b-0904-4bd7-aff8-190e82d4a588"
                        }
                    }
                ]
            }
        },
        {
            "id": "Observation/2113a3df-a38d-4176-b47e-532ffaa1be85",
            "content": {
                "resourceType": "Observation",
                "name": {
                    "coding": [
                        {
                            "system": "http://loinc.org",
                            "code": "55418-8",
                            "display": "Weight and Height tracking panel"
                        }
                    ],
                    "text": "Weight and Height tracking panel"
                },
                "issued": "2013-07-11T03:00:00.000Z",
                "status": "final",
                "reliability": "ok",
                "extension": [
                    {
                        "url": "http://amida.com/fhir/Profile/extensions#observation-type",
                        "valueCoding": {
                            "code": "8716-3",
                            "display": "Vital signs",
                            "system": "http://loinc.org"
                        }
                    }
                ],
                "related": [
                    {
                        "type": "has-component",
                        "target": {
                            "reference": "Observation/979c7141-43a0-49f5-b65f-b033d9b347b0"
                        }
                    },
                    {
                        "type": "has-component",
                        "target": {
                            "reference": "Observation/73345925-c9bf-4556-8717-205d0e0ec0e3"
                        }
                    }
                ]
            }
        },
        {
            "id": "Condition/c72fad8e-6b11-466e-8bf8-20a75676e1fb",
            "content": {
                "resourceType": "Condition",
                "status": "confirmed",
                "onsetDate": "2013-07-10",
                "dateAsserted": "2013-07-10",
                "code": {
                    "coding": [
                        {
                            "system": "http://snomed.info/sct",
                            "code": "194828000",
                            "display": "Angina (disorder)"
                        }
                    ],
                    "text": "Angina (disorder)"
                }
            }
        },
        {
            "id": "Condition/500a639a-a019-4150-8034-379b4f5542bf",
            "content": {
                "resourceType": "Condition",
                "status": "confirmed",
                "onsetDate": "2009-01-09",
                "dateAsserted": "2009-01-09",
                "code": {
                    "coding": [
                        {
                            "system": "http://snomed.info/sct",
                            "code": "44054006",
                            "display": "Diabetes mellitus type 2 (disorder)"
                        }
                    ],
                    "text": "Diabetes mellitus type 2 (disorder)"
                }
            }
        },
        {
            "id": "Condition/05bbefe3-b483-4410-93ae-1e7670dec37e",
            "content": {
                "resourceType": "Condition",
                "status": "confirmed",
                "onsetDate": "2008-08-08",
                "dateAsserted": "2008-08-08",
                "code": {
                    "coding": [
                        {
                            "system": "http://snomed.info/sct",
                            "code": "13644009",
                            "display": "Hypercholesterolemia (disorder)"
                        }
                    ],
                    "text": "Hypercholesterolemia (disorder)"
                }
            }
        },
        {
            "id": "Condition/7b9e5a2d-c2bd-4658-b88d-cbdec3e5823a",
            "content": {
                "resourceType": "Condition",
                "status": "confirmed",
                "onsetDate": "2013-07-17",
                "dateAsserted": "2013-07-17",
                "code": {
                    "coding": [
                        {
                            "system": "http://snomed.info/sct",
                            "code": "194828000",
                            "display": "Angina (disorder)"
                        }
                    ],
                    "text": "Angina (disorder)"
                }
            }
        },
        {
            "id": "Condition/a6f7389d-e8e1-4144-8c87-4fd0c173a1f4",
            "content": {
                "resourceType": "Condition",
                "status": "confirmed",
                "onsetDate": "2013-07-11",
                "dateAsserted": "2013-07-11",
                "code": {
                    "coding": [
                        {
                            "system": "http://snomed.info/sct",
                            "code": "194828000",
                            "display": "Angina (disorder)"
                        }
                    ],
                    "text": "Angina (disorder)"
                }
            }
        },
        {
            "id": "Observation/3e93ea36-9696-4bc0-9536-7a360f88abd9",
            "content": {
                "resourceType": "Observation",
                "name": {
                    "coding": [
                        {
                            "system": "http://loinc.org",
                            "code": "6598-7",
                            "display": "TROPONIN T.CARDIAC:MCNC:PT:SER/PLAS:QN:"
                        }
                    ],
                    "text": "TROPONIN T.CARDIAC:MCNC:PT:SER/PLAS:QN:"
                },
                "valueQuantity": {
                    "value": 0.01,
                    "units": "ng/mL",
                    "code": "ng/mL",
                    "system": "http://unitsofmeasure.org"
                },
                "issued": "2013-07-11",
                "status": "final",
                "reliability": "ok",
                "extension": [
                    {
                        "url": "http://amida.com/fhir/Profile/extensions#observation-type",
                        "valueCoding": {
                            "code": "11502-2",
                            "display": "Laboratory report",
                            "system": "http://loinc.org"
                        }
                    }
                ],
                "interpretation": {
                    "coding": [
                        {
                            "system": "http://hl7.org/fhir/v2/0078",
                            "code": "N",
                            "display": "Normal"
                        }
                    ],
                    "text": "Normal"
                },
                "referenceRange": [
                    {
                        "meaning": {
                            "coding": [
                                {
                                    "system": "http://hl7.org/fhir/referencerange-meaning",
                                    "code": "normal",
                                    "display": "Normal Range"
                                }
                            ],
                            "text": "Normal Range"
                        },
                        "text": "0.00-0.20 ng/mL"
                    }
                ]
            }
        },
        {
            "id": "Observation/78e527a2-6e9d-405a-9beb-96d621d14cb3",
            "content": {
                "resourceType": "Observation",
                "name": {
                    "coding": [
                        {
                            "system": "http://loinc.org",
                            "code": "18719-5"
                        }
                    ]
                },
                "status": "final",
                "reliability": "ok",
                "related": [
                    {
                        "type": "has-component",
                        "target": {
                            "reference": "Observation/3e93ea36-9696-4bc0-9536-7a360f88abd9"
                        }
                    }
                ],
                "extension": [
                    {
                        "url": "http://amida.com/fhir/Profile/extensions#observation-type",
                        "valueCoding": {
                            "code": "11502-2",
                            "display": "Laboratory report",
                            "system": "http://loinc.org"
                        }
                    }
                ]
            }
        },
        {
            "id": "Observation/5b349564-815b-4283-a6fd-3b13cec030b9",
            "content": {
                "resourceType": "Observation",
                "name": {
                    "coding": [
                        {
                            "system": "http://loinc.org",
                            "code": "6298-4",
                            "display": "POTASSIUM:SCNC:PT:BLD:QN:"
                        }
                    ],
                    "text": "POTASSIUM:SCNC:PT:BLD:QN:"
                },
                "valueQuantity": {
                    "value": 3.5,
                    "units": "mmol/L",
                    "code": "mmol/L",
                    "system": "http://unitsofmeasure.org"
                },
                "issued": "2013-07-11",
                "status": "final",
                "reliability": "ok",
                "extension": [
                    {
                        "url": "http://amida.com/fhir/Profile/extensions#observation-type",
                        "valueCoding": {
                            "code": "11502-2",
                            "display": "Laboratory report",
                            "system": "http://loinc.org"
                        }
                    }
                ],
                "interpretation": {
                    "coding": [
                        {
                            "system": "http://hl7.org/fhir/v2/0078",
                            "code": "N",
                            "display": "Normal"
                        }
                    ],
                    "text": "Normal"
                },
                "referenceRange": [
                    {
                        "meaning": {
                            "coding": [
                                {
                                    "system": "http://hl7.org/fhir/referencerange-meaning",
                                    "code": "normal",
                                    "display": "Normal Range"
                                }
                            ],
                            "text": "Normal Range"
                        },
                        "text": "3.5-5.0 mmol/L"
                    }
                ]
            }
        },
        {
            "id": "Observation/1053deec-12d2-4df1-975c-5eb6fb7d50cb",
            "content": {
                "resourceType": "Observation",
                "name": {
                    "coding": [
                        {
                            "system": "http://loinc.org",
                            "code": "6299-2",
                            "display": "UREA NITROGEN:MCNC:PT:BLD:QN:"
                        }
                    ],
                    "text": "UREA NITROGEN:MCNC:PT:BLD:QN:"
                },
                "valueQuantity": {
                    "value": 8,
                    "units": "mg/dL",
                    "code": "mg/dL",
                    "system": "http://unitsofmeasure.org"
                },
                "issued": "2013-07-11",
                "status": "final",
                "reliability": "ok",
                "extension": [
                    {
                        "url": "http://amida.com/fhir/Profile/extensions#observation-type",
                        "valueCoding": {
                            "code": "11502-2",
                            "display": "Laboratory report",
                            "system": "http://loinc.org"
                        }
                    }
                ],
                "interpretation": {
                    "coding": [
                        {
                            "system": "http://hl7.org/fhir/v2/0078",
                            "code": "N",
                            "display": "Normal"
                        }
                    ],
                    "text": "Normal"
                },
                "referenceRange": [
                    {
                        "meaning": {
                            "coding": [
                                {
                                    "system": "http://hl7.org/fhir/referencerange-meaning",
                                    "code": "normal",
                                    "display": "Normal Range"
                                }
                            ],
                            "text": "Normal Range"
                        },
                        "text": "4-18 mg/dL"
                    }
                ]
            }
        },
        {
            "id": "Observation/aee801f9-ad73-494f-a718-8ca134303735",
            "content": {
                "resourceType": "Observation",
                "name": {
                    "coding": [
                        {
                            "system": "http://loinc.org",
                            "code": "2028-9",
                            "display": "CARBON DIOXIDE:SCNC:PT:SER/PLAS:QN:"
                        }
                    ],
                    "text": "CARBON DIOXIDE:SCNC:PT:SER/PLAS:QN:"
                },
                "valueQuantity": {
                    "value": 23,
                    "units": "mmol/L",
                    "code": "mmol/L",
                    "system": "http://unitsofmeasure.org"
                },
                "issued": "2013-07-11",
                "status": "final",
                "reliability": "ok",
                "extension": [
                    {
                        "url": "http://amida.com/fhir/Profile/extensions#observation-type",
                        "valueCoding": {
                            "code": "11502-2",
                            "display": "Laboratory report",
                            "system": "http://loinc.org"
                        }
                    }
                ],
                "interpretation": {
                    "coding": [
                        {
                            "system": "http://hl7.org/fhir/v2/0078",
                            "code": "N",
                            "display": "Normal"
                        }
                    ],
                    "text": "Normal"
                },
                "referenceRange": [
                    {
                        "meaning": {
                            "coding": [
                                {
                                    "system": "http://hl7.org/fhir/referencerange-meaning",
                                    "code": "normal",
                                    "display": "Normal Range"
                                }
                            ],
                            "text": "Normal Range"
                        },
                        "text": "22-33 mmol/L"
                    }
                ]
            }
        },
        {
            "id": "Observation/ccb994f3-e908-476d-863c-8a3cbc1dce7e",
            "content": {
                "resourceType": "Observation",
                "name": {
                    "coding": [
                        {
                            "system": "http://loinc.org",
                            "code": "2947-0",
                            "display": "SODIUM:SCNC:PT:BLD:QN:"
                        }
                    ],
                    "text": "SODIUM:SCNC:PT:BLD:QN:"
                },
                "valueQuantity": {
                    "value": 135,
                    "units": "mmol/L",
                    "code": "mmol/L",
                    "system": "http://unitsofmeasure.org"
                },
                "issued": "2013-07-11",
                "status": "final",
                "reliability": "ok",
                "extension": [
                    {
                        "url": "http://amida.com/fhir/Profile/extensions#observation-type",
                        "valueCoding": {
                            "code": "11502-2",
                            "display": "Laboratory report",
                            "system": "http://loinc.org"
                        }
                    }
                ],
                "interpretation": {
                    "coding": [
                        {
                            "system": "http://hl7.org/fhir/v2/0078",
                            "code": "N",
                            "display": "Normal"
                        }
                    ],
                    "text": "Normal"
                },
                "referenceRange": [
                    {
                        "meaning": {
                            "coding": [
                                {
                                    "system": "http://hl7.org/fhir/referencerange-meaning",
                                    "code": "normal",
                                    "display": "Normal Range"
                                }
                            ],
                            "text": "Normal Range"
                        },
                        "text": "135-145 mmol/L"
                    }
                ]
            }
        },
        {
            "id": "Observation/4113f3d9-f583-4426-8e42-0954949253a4",
            "content": {
                "resourceType": "Observation",
                "name": {
                    "coding": [
                        {
                            "system": "http://loinc.org",
                            "code": "2069-3",
                            "display": "CHLORIDE:SCNC:PT:BLD:QN:"
                        }
                    ],
                    "text": "CHLORIDE:SCNC:PT:BLD:QN:"
                },
                "valueQuantity": {
                    "value": 95,
                    "units": "mmol/L",
                    "code": "mmol/L",
                    "system": "http://unitsofmeasure.org"
                },
                "issued": "2013-07-11",
                "status": "final",
                "reliability": "ok",
                "extension": [
                    {
                        "url": "http://amida.com/fhir/Profile/extensions#observation-type",
                        "valueCoding": {
                            "code": "11502-2",
                            "display": "Laboratory report",
                            "system": "http://loinc.org"
                        }
                    }
                ],
                "interpretation": {
                    "coding": [
                        {
                            "system": "http://hl7.org/fhir/v2/0078",
                            "code": "N",
                            "display": "Normal"
                        }
                    ],
                    "text": "Normal"
                },
                "referenceRange": [
                    {
                        "meaning": {
                            "coding": [
                                {
                                    "system": "http://hl7.org/fhir/referencerange-meaning",
                                    "code": "normal",
                                    "display": "Normal Range"
                                }
                            ],
                            "text": "Normal Range"
                        },
                        "text": "95-110 mmol/L"
                    }
                ]
            }
        },
        {
            "id": "Observation/4d34e0a5-269d-4820-8b3a-886c69b1cc11",
            "content": {
                "resourceType": "Observation",
                "name": {
                    "coding": [
                        {
                            "system": "http://loinc.org",
                            "code": "2339-0",
                            "display": "GLUCOSE:MCNC:PT:BLD:QN:"
                        }
                    ],
                    "text": "GLUCOSE:MCNC:PT:BLD:QN:"
                },
                "valueQuantity": {
                    "value": 185,
                    "units": "mg/dL",
                    "code": "mg/dL",
                    "system": "http://unitsofmeasure.org"
                },
                "issued": "2013-07-11",
                "status": "final",
                "reliability": "ok",
                "extension": [
                    {
                        "url": "http://amida.com/fhir/Profile/extensions#observation-type",
                        "valueCoding": {
                            "code": "11502-2",
                            "display": "Laboratory report",
                            "system": "http://loinc.org"
                        }
                    }
                ],
                "interpretation": {
                    "coding": [
                        {
                            "system": "http://hl7.org/fhir/v2/0078",
                            "code": "H",
                            "display": "High"
                        }
                    ],
                    "text": "High"
                },
                "referenceRange": [
                    {
                        "meaning": {
                            "coding": [
                                {
                                    "system": "http://hl7.org/fhir/referencerange-meaning",
                                    "code": "normal",
                                    "display": "Normal Range"
                                }
                            ],
                            "text": "Normal Range"
                        },
                        "text": "65-110 mg/dL"
                    }
                ]
            }
        },
        {
            "id": "Observation/93d998b3-939b-4bda-9271-fd49e466b05a",
            "content": {
                "resourceType": "Observation",
                "name": {
                    "coding": [
                        {
                            "system": "http://loinc.org",
                            "code": "38483-4",
                            "display": "CREATININE:MCNC:PT:BLD:QN:"
                        }
                    ],
                    "text": "CREATININE:MCNC:PT:BLD:QN:"
                },
                "valueQuantity": {
                    "value": 0.8,
                    "units": "mg/dL",
                    "code": "mg/dL",
                    "system": "http://unitsofmeasure.org"
                },
                "issued": "2013-07-11",
                "status": "final",
                "reliability": "ok",
                "extension": [
                    {
                        "url": "http://amida.com/fhir/Profile/extensions#observation-type",
                        "valueCoding": {
                            "code": "11502-2",
                            "display": "Laboratory report",
                            "system": "http://loinc.org"
                        }
                    }
                ],
                "interpretation": {
                    "coding": [
                        {
                            "system": "http://hl7.org/fhir/v2/0078",
                            "code": "N",
                            "display": "Normal"
                        }
                    ],
                    "text": "Normal"
                },
                "referenceRange": [
                    {
                        "meaning": {
                            "coding": [
                                {
                                    "system": "http://hl7.org/fhir/referencerange-meaning",
                                    "code": "normal",
                                    "display": "Normal Range"
                                }
                            ],
                            "text": "Normal Range"
                        },
                        "text": "0.5-1.2 mg/dL"
                    }
                ]
            }
        },
        {
            "id": "Observation/afd8da00-08b2-42b5-8f37-bd53a07b13ad",
            "content": {
                "resourceType": "Observation",
                "name": {
                    "coding": [
                        {
                            "system": "http://loinc.org",
                            "code": "18719-5"
                        }
                    ]
                },
                "status": "final",
                "reliability": "ok",
                "related": [
                    {
                        "type": "has-component",
                        "target": {
                            "reference": "Observation/5b349564-815b-4283-a6fd-3b13cec030b9"
                        }
                    },
                    {
                        "type": "has-component",
                        "target": {
                            "reference": "Observation/1053deec-12d2-4df1-975c-5eb6fb7d50cb"
                        }
                    },
                    {
                        "type": "has-component",
                        "target": {
                            "reference": "Observation/aee801f9-ad73-494f-a718-8ca134303735"
                        }
                    },
                    {
                        "type": "has-component",
                        "target": {
                            "reference": "Observation/ccb994f3-e908-476d-863c-8a3cbc1dce7e"
                        }
                    },
                    {
                        "type": "has-component",
                        "target": {
                            "reference": "Observation/4113f3d9-f583-4426-8e42-0954949253a4"
                        }
                    },
                    {
                        "type": "has-component",
                        "target": {
                            "reference": "Observation/4d34e0a5-269d-4820-8b3a-886c69b1cc11"
                        }
                    },
                    {
                        "type": "has-component",
                        "target": {
                            "reference": "Observation/93d998b3-939b-4bda-9271-fd49e466b05a"
                        }
                    }
                ],
                "extension": [
                    {
                        "url": "http://amida.com/fhir/Profile/extensions#observation-type",
                        "valueCoding": {
                            "code": "11502-2",
                            "display": "Laboratory report",
                            "system": "http://loinc.org"
                        }
                    }
                ]
            }
        },
        {
            "id": "MedicationPrescription/e51a4c4f-b4a4-43d6-8f09-44cc1b167752",
            "content": {
                "resourceType": "MedicationPrescription",
                "status": "active",
                "dateWritten": "2009-01-10T03:53:00.000Z",
                "dosageInstruction": [
                    {
                        "route": {
                            "coding": [
                                {
                                    "system": "urn:oid:2.16.840.1.113883.3.26.1.1",
                                    "code": "C38299",
                                    "display": "SUBCUTANEOUS"
                                }
                            ],
                            "text": "SUBCUTANEOUS"
                        },
                        "doseQuantity": {
                            "value": 30
                        },
                        "timingPeriod": {
                            "start": "2009-01-10T03:53:00.000Z"
                        }
                    }
                ],
                "text": {
                    "status": "generated",
                    "div": "30 units, Subcutaneous, At Bedtime, 10 mL"
                },
                "contained": [
                    {
                        "id": "med",
                        "resourceType": "Medication",
                        "name": "Insulin Glargine 100 UNT/ML Injectable Solution",
                        "code": {
                            "coding": [
                                {
                                    "system": "http://www.nlm.nih.gov/research/umls/rxnorm",
                                    "code": "311041",
                                    "display": "Insulin Glargine 100 UNT/ML Injectable Solution"
                                }
                            ],
                            "text": "Insulin Glargine 100 UNT/ML Injectable Solution"
                        }
                    }
                ],
                "medication": {
                    "reference": "#med",
                    "display": "Insulin Glargine 100 UNT/ML Injectable Solution"
                }
            }
        },
        {
            "id": "MedicationPrescription/6d3abd45-fb05-41ea-9dcd-41075f988367",
            "content": {
                "resourceType": "MedicationPrescription",
                "status": "active",
                "dateWritten": "2008-08-09T02:54:00.000Z",
                "dosageInstruction": [
                    {
                        "route": {
                            "coding": [
                                {
                                    "system": "urn:oid:2.16.840.1.113883.3.26.1.1",
                                    "code": "C38288",
                                    "display": "ORAL"
                                }
                            ],
                            "text": "ORAL"
                        },
                        "timingPeriod": {
                            "start": "2008-08-09T02:54:00.000Z"
                        }
                    }
                ],
                "text": {
                    "status": "generated",
                    "div": "40 mg = 1 tab(s), PO, Once Daily"
                },
                "contained": [
                    {
                        "id": "med",
                        "resourceType": "Medication",
                        "name": "atorvastatin 40 MG Oral Tablet",
                        "code": {
                            "coding": [
                                {
                                    "system": "http://www.nlm.nih.gov/research/umls/rxnorm",
                                    "code": "617311",
                                    "display": "atorvastatin 40 MG Oral Tablet"
                                }
                            ],
                            "text": "atorvastatin 40 MG Oral Tablet"
                        }
                    }
                ],
                "medication": {
                    "reference": "#med",
                    "display": "atorvastatin 40 MG Oral Tablet"
                }
            }
        },
        {
            "id": "MedicationPrescription/f249b874-4a02-4a0e-90ba-d3fe297e8321",
            "content": {
                "resourceType": "MedicationPrescription",
                "status": "active",
                "dateWritten": "2009-01-10T03:53:00.000Z",
                "dosageInstruction": [
                    {
                        "route": {
                            "coding": [
                                {
                                    "system": "urn:oid:2.16.840.1.113883.3.26.1.1",
                                    "code": "C38299",
                                    "display": "SUBCUTANEOUS"
                                }
                            ],
                            "text": "SUBCUTANEOUS"
                        },
                        "doseQuantity": {
                            "value": 15
                        },
                        "timingPeriod": {
                            "start": "2009-01-10T03:53:00.000Z"
                        }
                    }
                ],
                "text": {
                    "status": "generated",
                    "div": "15 units, Subcutaneous, TIDAC, 10 mL"
                }
            }
        },
        {
            "id": "MedicationPrescription/8391dda2-0e64-4edd-9fb3-75a5a7d4d19a",
            "content": {
                "resourceType": "MedicationPrescription",
                "status": "active",
                "dateWritten": "2013-07-11T03:06:34.000Z",
                "dosageInstruction": [
                    {
                        "route": {
                            "coding": [
                                {
                                    "system": "urn:oid:2.16.840.1.113883.3.26.1.1",
                                    "code": "C38288",
                                    "display": "ORAL"
                                }
                            ],
                            "text": "ORAL"
                        },
                        "timingPeriod": {
                            "start": "2013-07-11T03:06:34.000Z"
                        }
                    }
                ],
                "text": {
                    "status": "generated",
                    "div": "81 mg = 1 tab(s), PO, Once Daily, 30 tab(s)"
                },
                "contained": [
                    {
                        "id": "med",
                        "resourceType": "Medication",
                        "name": "Aspirin 81 MG Oral Tablet",
                        "code": {
                            "coding": [
                                {
                                    "system": "http://www.nlm.nih.gov/research/umls/rxnorm",
                                    "code": "243670",
                                    "display": "Aspirin 81 MG Oral Tablet"
                                }
                            ],
                            "text": "Aspirin 81 MG Oral Tablet"
                        }
                    }
                ],
                "medication": {
                    "reference": "#med",
                    "display": "Aspirin 81 MG Oral Tablet"
                }
            }
        }
    ]
}