{
    "resourceType": "Bundle",
    "totalResults": 31,
    "entry": [
        {
            "id": "Patient/some-id-here-1987",
            "content": {
                "resourceType": "Patient",
                "identifier": [
                    {
                        "system": "http://www.midea-tecg.com",
                        "value": "JOE_DOE_IDENTIFIER"
                    }
                ],
                "name": [
                    {
                        "family": [
                            "DOE"
                        ],
                        "given": [
                            "JOE"
                        ]
                    }
                ]
            }
        },
        {
            "id": "AdverseReaction/ea163469-42ab-4efc-994f-1b13dce11de3",
            "content": {
                "resourceType": "AdverseReaction",
                "symptom": [
                    {
                        "code": {
                            "coding": [
                                {
                                    "system": "http://snomed.info/sct",
                                    "code": "422587007",
                                    "display": "Nausea (finding)"
                                }
                            ],
                            "text": "Nausea (finding)"
                        }
                    }
                ],
                "didNotOccurFlag": false,
                "subject": {
                    "reference": "Patient/some-id-here-1987",
                    "display": "DOE, JOE"
                }
            }
        },
        {
            "id": "AllergyIntolerance/3a984498-8bc1-49fb-ad5f-6c55223b2bc9",
            "content": {
                "resourceType": "AllergyIntolerance",
                "criticality": "medium",
                "sensitivityType": "allergy",
                "status": "confirmed",
                "contained": [
                    {
                        "id": "allergen",
                        "resourceType": "Substance",
                        "type": {
                            "coding": [
                                {
                                    "system": "http://www.nlm.nih.gov/research/umls/rxnorm",
                                    "code": "2670",
                                    "display": "Codeine"
                                }
                            ],
                            "text": "Codeine"
                        }
                    }
                ],
                "substance": {
                    "reference": "#allergen",
                    "display": "Codeine"
                },
                "reaction": [
                    {
                        "reference": "AdverseReaction/ea163469-42ab-4efc-994f-1b13dce11de3",
                        "display": "Nausea (finding)"
                    }
                ],
                "subject": {
                    "reference": "Patient/some-id-here-1987",
                    "display": "DOE, JOE"
                }
            }
        },
        {
            "id": "AdverseReaction/d5c105e3-0866-42fa-ab3e-5aba575f5022",
            "content": {
                "resourceType": "AdverseReaction",
                "symptom": [
                    {
                        "code": {
                            "coding": [
                                {
                                    "system": "http://snomed.info/sct",
                                    "code": "247472004",
                                    "display": "Weal (disorder)"
                                }
                            ],
                            "text": "Weal (disorder)"
                        }
                    }
                ],
                "didNotOccurFlag": false,
                "subject": {
                    "reference": "Patient/some-id-here-1987",
                    "display": "DOE, JOE"
                }
            }
        },
        {
            "id": "AllergyIntolerance/446fd010-b817-4110-bc79-a282fd06a3aa",
            "content": {
                "resourceType": "AllergyIntolerance",
                "criticality": "medium",
                "sensitivityType": "allergy",
                "status": "confirmed",
                "contained": [
                    {
                        "id": "allergen",
                        "resourceType": "Substance",
                        "type": {
                            "coding": [
                                {
                                    "system": "http://www.nlm.nih.gov/research/umls/rxnorm",
                                    "code": "7980",
                                    "display": "Penicillin G"
                                }
                            ],
                            "text": "Penicillin G"
                        }
                    }
                ],
                "substance": {
                    "reference": "#allergen",
                    "display": "Penicillin G"
                },
                "reaction": [
                    {
                        "reference": "AdverseReaction/d5c105e3-0866-42fa-ab3e-5aba575f5022",
                        "display": "Weal (disorder)"
                    }
                ],
                "subject": {
                    "reference": "Patient/some-id-here-1987",
                    "display": "DOE, JOE"
                }
            }
        },
        {
            "id": "Observation/61b4516f-1cd4-4f87-96c9-a004ed6b4b70",
            "content": {
                "resourceType": "Observation",
                "name": {
                    "coding": [
                        {
                            "system": "http://loinc.org",
                            "code": "3139-2"
                        }
                    ]
                },
                "valueQuantity": {
                    "value": 2.01,
                    "units": "mm2",
                    "code": "mm2",
                    "system": "http://unitsofmeasure.org"
                },
                "issued": "2013-07-11T03:00:00.000Z",
                "status": "final",
                "reliability": "ok",
                "extension": [
                    {
                        "url": "http://amida.com/fhir/Profile/extensions#observation-type",
                        "valueCoding": {
                            "code": "8716-3",
                            "display": "Vital signs",
                            "system": "http://loinc.org"
                        }
                    }
                ],
                "subject": {
                    "reference": "Patient/some-id-here-1987",
                    "display": "DOE, JOE"
                }
            }
        },
        {
            "id": "Observation/d977f1a8-7805-4382-ada5-d388994db7cb",
            "content": {
                "resourceType": "Observation",
                "name": {
                    "coding": [
                        {
                            "system": "http://loinc.org",
                            "code": "8462-4"
                        }
                    ]
                },
                "valueQuantity": {
                    "value": 95,
                    "units": "mm[Hg]",
                    "code": "mm[Hg]",
                    "system": "http://unitsofmeasure.org"
                },
                "issued": "2013-07-11T03:00:00.000Z",
                "status": "final",
                "reliability": "ok",
                "extension": [
                    {
                        "url": "http://amida.com/fhir/Profile/extensions#observation-type",
                        "valueCoding": {
                            "code": "8716-3",
                            "display": "Vital signs",
                            "system": "http://loinc.org"
                        }
                    }
                ],
                "interpretation": {
                    "coding": [
                        {
                            "system": "http://hl7.org/fhir/v2/0078",
                            "code": "H",
                            "display": "High"
                        }
                    ],
                    "text": "High"
                },
                "subject": {
                    "reference": "Patient/some-id-here-1987",
                    "display": "DOE, JOE"
                }
            }
        },
        {
            "id": "Observation/d4653761-fb76-4be3-983e-845290d32e86",
            "content": {
                "resourceType": "Observation",
                "name": {
                    "coding": [
                        {
                            "system": "http://loinc.org",
                            "code": "3141-9"
                        }
                    ]
                },
                "valueQuantity": {
                    "value": 82,
                    "units": "kg",
                    "code": "kg",
                    "system": "http://unitsofmeasure.org"
                },
                "issued": "2013-07-11T03:00:00.000Z",
                "status": "final",
                "reliability": "ok",
                "extension": [
                    {
                        "url": "http://amida.com/fhir/Profile/extensions#observation-type",
                        "valueCoding": {
                            "code": "8716-3",
                            "display": "Vital signs",
                            "system": "http://loinc.org"
                        }
                    }
                ],
                "subject": {
                    "reference": "Patient/some-id-here-1987",
                    "display": "DOE, JOE"
                }
            }
        },
        {
            "id": "Observation/1e53154b-4b92-48cc-a61f-14de824902f5",
            "content": {
                "resourceType": "Observation",
                "name": {
                    "coding": [
                        {
                            "system": "http://loinc.org",
                            "code": "8302-2"
                        }
                    ]
                },
                "valueQuantity": {
                    "value": 178,
                    "units": "cm",
                    "code": "cm",
                    "system": "http://unitsofmeasure.org"
                },
                "issued": "2013-07-11T03:00:00.000Z",
                "status": "final",
                "reliability": "ok",
                "extension": [
                    {
                        "url": "http://amida.com/fhir/Profile/extensions#observation-type",
                        "valueCoding": {
                            "code": "8716-3",
                            "display": "Vital signs",
                            "system": "http://loinc.org"
                        }
                    }
                ],
                "subject": {
                    "reference": "Patient/some-id-here-1987",
                    "display": "DOE, JOE"
                }
            }
        },
        {
            "id": "Observation/d97f3fbf-4132-4160-a1d8-faf3f1cc7d34",
            "content": {
                "resourceType": "Observation",
                "name": {
                    "coding": [
                        {
                            "system": "http://loinc.org",
                            "code": "8480-6"
                        }
                    ]
                },
                "valueQuantity": {
                    "value": 150,
                    "units": "mm[Hg]",
                    "code": "mm[Hg]",
                    "system": "http://unitsofmeasure.org"
                },
                "issued": "2013-07-11T03:00:00.000Z",
                "status": "final",
                "reliability": "ok",
                "extension": [
                    {
                        "url": "http://amida.com/fhir/Profile/extensions#observation-type",
                        "valueCoding": {
                            "code": "8716-3",
                            "display": "Vital signs",
                            "system": "http://loinc.org"
                        }
                    }
                ],
                "interpretation": {
                    "coding": [
                        {
                            "system": "http://hl7.org/fhir/v2/0078",
                            "code": "H",
                            "display": "High"
                        }
                    ],
                    "text": "High"
                },
                "subject": {
                    "reference": "Patient/some-id-here-1987",
                    "display": "DOE, JOE"
                }
            }
        },
        {
            "id": "Observation/da7fea5c-f5a7-4d03-b61f-0ebe65402790",
            "content": {
                "resourceType": "Observation",
                "name": {
                    "coding": [
                        {
                            "system": "http://loinc.org",
                            "code": "35094-2",
                            "display": "Blood pressure panel"
                        }
                    ],
                    "text": "Blood pressure panel"
                },
                "issued": "2013-07-11T03:00:00.000Z",
                "status": "final",
                "reliability": "ok",
                "extension": [
                    {
                        "url": "http://amida.com/fhir/Profile/extensions#observation-type",
                        "valueCoding": {
                            "code": "8716-3",
                            "display": "Vital signs",
                            "system": "http://loinc.org"
                        }
                    }
                ],
                "related": [
                    {
                        "type": "has-component",
                        "target": {
                            "reference": "Observation/d977f1a8-7805-4382-ada5-d388994db7cb"
                        }
                    },
                    {
                        "type": "has-component",
                        "target": {
                            "reference": "Observation/d97f3fbf-4132-4160-a1d8-faf3f1cc7d34"
                        }
                    }
                ],
                "subject": {
                    "reference": "Patient/some-id-here-1987",
                    "display": "DOE, JOE"
                }
            }
        },
        {
            "id": "Observation/321e85d7-3fb9-448d-9ffb-fb8710cb6b71",
            "content": {
                "resourceType": "Observation",
                "name": {
                    "coding": [
                        {
                            "system": "http://loinc.org",
                            "code": "55418-8",
                            "display": "Weight and Height tracking panel"
                        }
                    ],
                    "text": "Weight and Height tracking panel"
                },
                "issued": "2013-07-11T03:00:00.000Z",
                "status": "final",
                "reliability": "ok",
                "extension": [
                    {
                        "url": "http://amida.com/fhir/Profile/extensions#observation-type",
                        "valueCoding": {
                            "code": "8716-3",
                            "display": "Vital signs",
                            "system": "http://loinc.org"
                        }
                    }
                ],
                "related": [
                    {
                        "type": "has-component",
                        "target": {
                            "reference": "Observation/d4653761-fb76-4be3-983e-845290d32e86"
                        }
                    },
                    {
                        "type": "has-component",
                        "target": {
                            "reference": "Observation/1e53154b-4b92-48cc-a61f-14de824902f5"
                        }
                    }
                ],
                "subject": {
                    "reference": "Patient/some-id-here-1987",
                    "display": "DOE, JOE"
                }
            }
        },
        {
            "id": "Condition/748ce706-1bdf-42f4-b39d-167dabc3ff4d",
            "content": {
                "resourceType": "Condition",
                "status": "confirmed",
                "onsetDate": "2013-07-10",
                "dateAsserted": "2013-07-10",
                "code": {
                    "coding": [
                        {
                            "system": "http://snomed.info/sct",
                            "code": "194828000",
                            "display": "Angina (disorder)"
                        }
                    ],
                    "text": "Angina (disorder)"
                },
                "subject": {
                    "reference": "Patient/some-id-here-1987",
                    "display": "DOE, JOE"
                }
            }
        },
        {
            "id": "Condition/9bd4402a-17a5-44d4-83ba-b6f5810ef34a",
            "content": {
                "resourceType": "Condition",
                "status": "confirmed",
                "onsetDate": "2009-01-09",
                "dateAsserted": "2009-01-09",
                "code": {
                    "coding": [
                        {
                            "system": "http://snomed.info/sct",
                            "code": "44054006",
                            "display": "Diabetes mellitus type 2 (disorder)"
                        }
                    ],
                    "text": "Diabetes mellitus type 2 (disorder)"
                },
                "subject": {
                    "reference": "Patient/some-id-here-1987",
                    "display": "DOE, JOE"
                }
            }
        },
        {
            "id": "Condition/bcdeb548-c178-4745-8ed4-fbdf820854e0",
            "content": {
                "resourceType": "Condition",
                "status": "confirmed",
                "onsetDate": "2008-08-08",
                "dateAsserted": "2008-08-08",
                "code": {
                    "coding": [
                        {
                            "system": "http://snomed.info/sct",
                            "code": "13644009",
                            "display": "Hypercholesterolemia (disorder)"
                        }
                    ],
                    "text": "Hypercholesterolemia (disorder)"
                },
                "subject": {
                    "reference": "Patient/some-id-here-1987",
                    "display": "DOE, JOE"
                }
            }
        },
        {
            "id": "Condition/3e19bed8-7d67-4d45-8210-dc0acd43b34c",
            "content": {
                "resourceType": "Condition",
                "status": "confirmed",
                "onsetDate": "2013-07-17",
                "dateAsserted": "2013-07-17",
                "code": {
                    "coding": [
                        {
                            "system": "http://snomed.info/sct",
                            "code": "194828000",
                            "display": "Angina (disorder)"
                        }
                    ],
                    "text": "Angina (disorder)"
                },
                "subject": {
                    "reference": "Patient/some-id-here-1987",
                    "display": "DOE, JOE"
                }
            }
        },
        {
            "id": "Condition/90d299c9-842c-4e3f-b6b0-63171160fe9e",
            "content": {
                "resourceType": "Condition",
                "status": "confirmed",
                "onsetDate": "2013-07-11",
                "dateAsserted": "2013-07-11",
                "code": {
                    "coding": [
                        {
                            "system": "http://snomed.info/sct",
                            "code": "194828000",
                            "display": "Angina (disorder)"
                        }
                    ],
                    "text": "Angina (disorder)"
                },
                "subject": {
                    "reference": "Patient/some-id-here-1987",
                    "display": "DOE, JOE"
                }
            }
        },
        {
            "id": "Observation/a5858c35-5509-4e19-9b13-b444b1899b1a",
            "content": {
                "resourceType": "Observation",
                "name": {
                    "coding": [
                        {
                            "system": "http://loinc.org",
                            "code": "6598-7",
                            "display": "TROPONIN T.CARDIAC:MCNC:PT:SER/PLAS:QN:"
                        }
                    ],
                    "text": "TROPONIN T.CARDIAC:MCNC:PT:SER/PLAS:QN:"
                },
                "valueQuantity": {
                    "value": 0.01,
                    "units": "ng/mL",
                    "code": "ng/mL",
                    "system": "http://unitsofmeasure.org"
                },
                "issued": "2013-07-11",
                "status": "final",
                "reliability": "ok",
                "extension": [
                    {
                        "url": "http://amida.com/fhir/Profile/extensions#observation-type",
                        "valueCoding": {
                            "code": "11502-2",
                            "display": "Laboratory report",
                            "system": "http://loinc.org"
                        }
                    }
                ],
                "interpretation": {
                    "coding": [
                        {
                            "system": "http://hl7.org/fhir/v2/0078",
                            "code": "N",
                            "display": "Normal"
                        }
                    ],
                    "text": "Normal"
                },
                "referenceRange": [
                    {
                        "meaning": {
                            "coding": [
                                {
                                    "system": "http://hl7.org/fhir/referencerange-meaning",
                                    "code": "normal",
                                    "display": "Normal Range"
                                }
                            ],
                            "text": "Normal Range"
                        },
                        "text": "0.00-0.20 ng/mL"
                    }
                ],
                "subject": {
                    "reference": "Patient/some-id-here-1987",
                    "display": "DOE, JOE"
                }
            }
        },
        {
            "id": "Observation/e68b10ce-53ff-4687-b637-c8189e7741a8",
            "content": {
                "resourceType": "Observation",
                "name": {
                    "coding": [
                        {
                            "system": "http://loinc.org",
                            "code": "18719-5"
                        }
                    ]
                },
                "status": "final",
                "reliability": "ok",
                "related": [
                    {
                        "type": "has-component",
                        "target": {
                            "reference": "Observation/a5858c35-5509-4e19-9b13-b444b1899b1a"
                        }
                    }
                ],
                "extension": [
                    {
                        "url": "http://amida.com/fhir/Profile/extensions#observation-type",
                        "valueCoding": {
                            "code": "11502-2",
                            "display": "Laboratory report",
                            "system": "http://loinc.org"
                        }
                    }
                ],
                "subject": {
                    "reference": "Patient/some-id-here-1987",
                    "display": "DOE, JOE"
                }
            }
        },
        {
            "id": "Observation/5cf4478f-9dba-4a3c-bd64-0dfc154e1049",
            "content": {
                "resourceType": "Observation",
                "name": {
                    "coding": [
                        {
                            "system": "http://loinc.org",
                            "code": "6298-4",
                            "display": "POTASSIUM:SCNC:PT:BLD:QN:"
                        }
                    ],
                    "text": "POTASSIUM:SCNC:PT:BLD:QN:"
                },
                "valueQuantity": {
                    "value": 3.5,
                    "units": "mmol/L",
                    "code": "mmol/L",
                    "system": "http://unitsofmeasure.org"
                },
                "issued": "2013-07-11",
                "status": "final",
                "reliability": "ok",
                "extension": [
                    {
                        "url": "http://amida.com/fhir/Profile/extensions#observation-type",
                        "valueCoding": {
                            "code": "11502-2",
                            "display": "Laboratory report",
                            "system": "http://loinc.org"
                        }
                    }
                ],
                "interpretation": {
                    "coding": [
                        {
                            "system": "http://hl7.org/fhir/v2/0078",
                            "code": "N",
                            "display": "Normal"
                        }
                    ],
                    "text": "Normal"
                },
                "referenceRange": [
                    {
                        "meaning": {
                            "coding": [
                                {
                                    "system": "http://hl7.org/fhir/referencerange-meaning",
                                    "code": "normal",
                                    "display": "Normal Range"
                                }
                            ],
                            "text": "Normal Range"
                        },
                        "text": "3.5-5.0 mmol/L"
                    }
                ],
                "subject": {
                    "reference": "Patient/some-id-here-1987",
                    "display": "DOE, JOE"
                }
            }
        },
        {
            "id": "Observation/ea857db1-2e75-4575-a87b-41d5f667d282",
            "content": {
                "resourceType": "Observation",
                "name": {
                    "coding": [
                        {
                            "system": "http://loinc.org",
                            "code": "6299-2",
                            "display": "UREA NITROGEN:MCNC:PT:BLD:QN:"
                        }
                    ],
                    "text": "UREA NITROGEN:MCNC:PT:BLD:QN:"
                },
                "valueQuantity": {
                    "value": 8,
                    "units": "mg/dL",
                    "code": "mg/dL",
                    "system": "http://unitsofmeasure.org"
                },
                "issued": "2013-07-11",
                "status": "final",
                "reliability": "ok",
                "extension": [
                    {
                        "url": "http://amida.com/fhir/Profile/extensions#observation-type",
                        "valueCoding": {
                            "code": "11502-2",
                            "display": "Laboratory report",
                            "system": "http://loinc.org"
                        }
                    }
                ],
                "interpretation": {
                    "coding": [
                        {
                            "system": "http://hl7.org/fhir/v2/0078",
                            "code": "N",
                            "display": "Normal"
                        }
                    ],
                    "text": "Normal"
                },
                "referenceRange": [
                    {
                        "meaning": {
                            "coding": [
                                {
                                    "system": "http://hl7.org/fhir/referencerange-meaning",
                                    "code": "normal",
                                    "display": "Normal Range"
                                }
                            ],
                            "text": "Normal Range"
                        },
                        "text": "4-18 mg/dL"
                    }
                ],
                "subject": {
                    "reference": "Patient/some-id-here-1987",
                    "display": "DOE, JOE"
                }
            }
        },
        {
            "id": "Observation/57726466-067e-455b-aad9-a10d6b1d6891",
            "content": {
                "resourceType": "Observation",
                "name": {
                    "coding": [
                        {
                            "system": "http://loinc.org",
                            "code": "2028-9",
                            "display": "CARBON DIOXIDE:SCNC:PT:SER/PLAS:QN:"
                        }
                    ],
                    "text": "CARBON DIOXIDE:SCNC:PT:SER/PLAS:QN:"
                },
                "valueQuantity": {
                    "value": 23,
                    "units": "mmol/L",
                    "code": "mmol/L",
                    "system": "http://unitsofmeasure.org"
                },
                "issued": "2013-07-11",
                "status": "final",
                "reliability": "ok",
                "extension": [
                    {
                        "url": "http://amida.com/fhir/Profile/extensions#observation-type",
                        "valueCoding": {
                            "code": "11502-2",
                            "display": "Laboratory report",
                            "system": "http://loinc.org"
                        }
                    }
                ],
                "interpretation": {
                    "coding": [
                        {
                            "system": "http://hl7.org/fhir/v2/0078",
                            "code": "N",
                            "display": "Normal"
                        }
                    ],
                    "text": "Normal"
                },
                "referenceRange": [
                    {
                        "meaning": {
                            "coding": [
                                {
                                    "system": "http://hl7.org/fhir/referencerange-meaning",
                                    "code": "normal",
                                    "display": "Normal Range"
                                }
                            ],
                            "text": "Normal Range"
                        },
                        "text": "22-33 mmol/L"
                    }
                ],
                "subject": {
                    "reference": "Patient/some-id-here-1987",
                    "display": "DOE, JOE"
                }
            }
        },
        {
            "id": "Observation/5ee06549-3dad-41c0-969c-c96225171d17",
            "content": {
                "resourceType": "Observation",
                "name": {
                    "coding": [
                        {
                            "system": "http://loinc.org",
                            "code": "2947-0",
                            "display": "SODIUM:SCNC:PT:BLD:QN:"
                        }
                    ],
                    "text": "SODIUM:SCNC:PT:BLD:QN:"
                },
                "valueQuantity": {
                    "value": 135,
                    "units": "mmol/L",
                    "code": "mmol/L",
                    "system": "http://unitsofmeasure.org"
                },
                "issued": "2013-07-11",
                "status": "final",
                "reliability": "ok",
                "extension": [
                    {
                        "url": "http://amida.com/fhir/Profile/extensions#observation-type",
                        "valueCoding": {
                            "code": "11502-2",
                            "display": "Laboratory report",
                            "system": "http://loinc.org"
                        }
                    }
                ],
                "interpretation": {
                    "coding": [
                        {
                            "system": "http://hl7.org/fhir/v2/0078",
                            "code": "N",
                            "display": "Normal"
                        }
                    ],
                    "text": "Normal"
                },
                "referenceRange": [
                    {
                        "meaning": {
                            "coding": [
                                {
                                    "system": "http://hl7.org/fhir/referencerange-meaning",
                                    "code": "normal",
                                    "display": "Normal Range"
                                }
                            ],
                            "text": "Normal Range"
                        },
                        "text": "135-145 mmol/L"
                    }
                ],
                "subject": {
                    "reference": "Patient/some-id-here-1987",
                    "display": "DOE, JOE"
                }
            }
        },
        {
            "id": "Observation/eddabf1b-ff46-4118-a1c1-0b798ac5478d",
            "content": {
                "resourceType": "Observation",
                "name": {
                    "coding": [
                        {
                            "system": "http://loinc.org",
                            "code": "2069-3",
                            "display": "CHLORIDE:SCNC:PT:BLD:QN:"
                        }
                    ],
                    "text": "CHLORIDE:SCNC:PT:BLD:QN:"
                },
                "valueQuantity": {
                    "value": 95,
                    "units": "mmol/L",
                    "code": "mmol/L",
                    "system": "http://unitsofmeasure.org"
                },
                "issued": "2013-07-11",
                "status": "final",
                "reliability": "ok",
                "extension": [
                    {
                        "url": "http://amida.com/fhir/Profile/extensions#observation-type",
                        "valueCoding": {
                            "code": "11502-2",
                            "display": "Laboratory report",
                            "system": "http://loinc.org"
                        }
                    }
                ],
                "interpretation": {
                    "coding": [
                        {
                            "system": "http://hl7.org/fhir/v2/0078",
                            "code": "N",
                            "display": "Normal"
                        }
                    ],
                    "text": "Normal"
                },
                "referenceRange": [
                    {
                        "meaning": {
                            "coding": [
                                {
                                    "system": "http://hl7.org/fhir/referencerange-meaning",
                                    "code": "normal",
                                    "display": "Normal Range"
                                }
                            ],
                            "text": "Normal Range"
                        },
                        "text": "95-110 mmol/L"
                    }
                ],
                "subject": {
                    "reference": "Patient/some-id-here-1987",
                    "display": "DOE, JOE"
                }
            }
        },
        {
            "id": "Observation/bc8b2fd1-c4eb-4fa9-9c9e-2ccf7bdedd4c",
            "content": {
                "resourceType": "Observation",
                "name": {
                    "coding": [
                        {
                            "system": "http://loinc.org",
                            "code": "2339-0",
                            "display": "GLUCOSE:MCNC:PT:BLD:QN:"
                        }
                    ],
                    "text": "GLUCOSE:MCNC:PT:BLD:QN:"
                },
                "valueQuantity": {
                    "value": 185,
                    "units": "mg/dL",
                    "code": "mg/dL",
                    "system": "http://unitsofmeasure.org"
                },
                "issued": "2013-07-11",
                "status": "final",
                "reliability": "ok",
                "extension": [
                    {
                        "url": "http://amida.com/fhir/Profile/extensions#observation-type",
                        "valueCoding": {
                            "code": "11502-2",
                            "display": "Laboratory report",
                            "system": "http://loinc.org"
                        }
                    }
                ],
                "interpretation": {
                    "coding": [
                        {
                            "system": "http://hl7.org/fhir/v2/0078",
                            "code": "H",
                            "display": "High"
                        }
                    ],
                    "text": "High"
                },
                "referenceRange": [
                    {
                        "meaning": {
                            "coding": [
                                {
                                    "system": "http://hl7.org/fhir/referencerange-meaning",
                                    "code": "normal",
                                    "display": "Normal Range"
                                }
                            ],
                            "text": "Normal Range"
                        },
                        "text": "65-110 mg/dL"
                    }
                ],
                "subject": {
                    "reference": "Patient/some-id-here-1987",
                    "display": "DOE, JOE"
                }
            }
        },
        {
            "id": "Observation/f3a0b3f5-65cb-4b76-b8d7-9a6b650c1203",
            "content": {
                "resourceType": "Observation",
                "name": {
                    "coding": [
                        {
                            "system": "http://loinc.org",
                            "code": "38483-4",
                            "display": "CREATININE:MCNC:PT:BLD:QN:"
                        }
                    ],
                    "text": "CREATININE:MCNC:PT:BLD:QN:"
                },
                "valueQuantity": {
                    "value": 0.8,
                    "units": "mg/dL",
                    "code": "mg/dL",
                    "system": "http://unitsofmeasure.org"
                },
                "issued": "2013-07-11",
                "status": "final",
                "reliability": "ok",
                "extension": [
                    {
                        "url": "http://amida.com/fhir/Profile/extensions#observation-type",
                        "valueCoding": {
                            "code": "11502-2",
                            "display": "Laboratory report",
                            "system": "http://loinc.org"
                        }
                    }
                ],
                "interpretation": {
                    "coding": [
                        {
                            "system": "http://hl7.org/fhir/v2/0078",
                            "code": "N",
                            "display": "Normal"
                        }
                    ],
                    "text": "Normal"
                },
                "referenceRange": [
                    {
                        "meaning": {
                            "coding": [
                                {
                                    "system": "http://hl7.org/fhir/referencerange-meaning",
                                    "code": "normal",
                                    "display": "Normal Range"
                                }
                            ],
                            "text": "Normal Range"
                        },
                        "text": "0.5-1.2 mg/dL"
                    }
                ],
                "subject": {
                    "reference": "Patient/some-id-here-1987",
                    "display": "DOE, JOE"
                }
            }
        },
        {
            "id": "Observation/8386f0dd-2ee1-4c28-a463-e4824a1d03d1",
            "content": {
                "resourceType": "Observation",
                "name": {
                    "coding": [
                        {
                            "system": "http://loinc.org",
                            "code": "18719-5"
                        }
                    ]
                },
                "status": "final",
                "reliability": "ok",
                "related": [
                    {
                        "type": "has-component",
                        "target": {
                            "reference": "Observation/5cf4478f-9dba-4a3c-bd64-0dfc154e1049"
                        }
                    },
                    {
                        "type": "has-component",
                        "target": {
                            "reference": "Observation/ea857db1-2e75-4575-a87b-41d5f667d282"
                        }
                    },
                    {
                        "type": "has-component",
                        "target": {
                            "reference": "Observation/57726466-067e-455b-aad9-a10d6b1d6891"
                        }
                    },
                    {
                        "type": "has-component",
                        "target": {
                            "reference": "Observation/5ee06549-3dad-41c0-969c-c96225171d17"
                        }
                    },
                    {
                        "type": "has-component",
                        "target": {
                            "reference": "Observation/eddabf1b-ff46-4118-a1c1-0b798ac5478d"
                        }
                    },
                    {
                        "type": "has-component",
                        "target": {
                            "reference": "Observation/bc8b2fd1-c4eb-4fa9-9c9e-2ccf7bdedd4c"
                        }
                    },
                    {
                        "type": "has-component",
                        "target": {
                            "reference": "Observation/f3a0b3f5-65cb-4b76-b8d7-9a6b650c1203"
                        }
                    }
                ],
                "extension": [
                    {
                        "url": "http://amida.com/fhir/Profile/extensions#observation-type",
                        "valueCoding": {
                            "code": "11502-2",
                            "display": "Laboratory report",
                            "system": "http://loinc.org"
                        }
                    }
                ],
                "subject": {
                    "reference": "Patient/some-id-here-1987",
                    "display": "DOE, JOE"
                }
            }
        },
        {
            "id": "MedicationPrescription/8bc55d6e-76f8-47a3-bb13-336ea7cb2eb0",
            "content": {
                "resourceType": "MedicationPrescription",
                "status": "active",
                "dateWritten": "2009-01-10T03:53:00.000Z",
                "dosageInstruction": [
                    {
                        "route": {
                            "coding": [
                                {
                                    "system": "urn:oid:2.16.840.1.113883.3.26.1.1",
                                    "code": "C38299",
                                    "display": "SUBCUTANEOUS"
                                }
                            ],
                            "text": "SUBCUTANEOUS"
                        },
                        "doseQuantity": {
                            "value": 30
                        },
                        "timingPeriod": {
                            "start": "2009-01-10T03:53:00.000Z"
                        }
                    }
                ],
                "text": {
                    "status": "generated",
                    "div": "30 units, Subcutaneous, At Bedtime, 10 mL"
                },
                "contained": [
                    {
                        "id": "med",
                        "resourceType": "Medication",
                        "name": "Insulin Glargine 100 UNT/ML Injectable Solution",
                        "code": {
                            "coding": [
                                {
                                    "system": "http://www.nlm.nih.gov/research/umls/rxnorm",
                                    "code": "311041",
                                    "display": "Insulin Glargine 100 UNT/ML Injectable Solution"
                                }
                            ],
                            "text": "Insulin Glargine 100 UNT/ML Injectable Solution"
                        }
                    }
                ],
                "medication": {
                    "reference": "#med",
                    "display": "Insulin Glargine 100 UNT/ML Injectable Solution"
                },
                "patient": {
                    "reference": "Patient/some-id-here-1987",
                    "display": "DOE, JOE"
                }
            }
        },
        {
            "id": "MedicationPrescription/60627c75-1ae8-4b10-822e-1630009c0dc8",
            "content": {
                "resourceType": "MedicationPrescription",
                "status": "active",
                "dateWritten": "2008-08-09T02:54:00.000Z",
                "dosageInstruction": [
                    {
                        "route": {
                            "coding": [
                                {
                                    "system": "urn:oid:2.16.840.1.113883.3.26.1.1",
                                    "code": "C38288",
                                    "display": "ORAL"
                                }
                            ],
                            "text": "ORAL"
                        },
                        "timingPeriod": {
                            "start": "2008-08-09T02:54:00.000Z"
                        }
                    }
                ],
                "text": {
                    "status": "generated",
                    "div": "40 mg = 1 tab(s), PO, Once Daily"
                },
                "contained": [
                    {
                        "id": "med",
                        "resourceType": "Medication",
                        "name": "atorvastatin 40 MG Oral Tablet",
                        "code": {
                            "coding": [
                                {
                                    "system": "http://www.nlm.nih.gov/research/umls/rxnorm",
                                    "code": "617311",
                                    "display": "atorvastatin 40 MG Oral Tablet"
                                }
                            ],
                            "text": "atorvastatin 40 MG Oral Tablet"
                        }
                    }
                ],
                "medication": {
                    "reference": "#med",
                    "display": "atorvastatin 40 MG Oral Tablet"
                },
                "patient": {
                    "reference": "Patient/some-id-here-1987",
                    "display": "DOE, JOE"
                }
            }
        },
        {
            "id": "MedicationPrescription/817f5248-3b7d-445c-a015-0f0faacc4433",
            "content": {
                "resourceType": "MedicationPrescription",
                "status": "active",
                "dateWritten": "2009-01-10T03:53:00.000Z",
                "dosageInstruction": [
                    {
                        "route": {
                            "coding": [
                                {
                                    "system": "urn:oid:2.16.840.1.113883.3.26.1.1",
                                    "code": "C38299",
                                    "display": "SUBCUTANEOUS"
                                }
                            ],
                            "text": "SUBCUTANEOUS"
                        },
                        "doseQuantity": {
                            "value": 15
                        },
                        "timingPeriod": {
                            "start": "2009-01-10T03:53:00.000Z"
                        }
                    }
                ],
                "text": {
                    "status": "generated",
                    "div": "15 units, Subcutaneous, TIDAC, 10 mL"
                },
                "patient": {
                    "reference": "Patient/some-id-here-1987",
                    "display": "DOE, JOE"
                }
            }
        },
        {
            "id": "MedicationPrescription/3ab8cebd-bb0d-4f6f-ab31-9d21a17c8590",
            "content": {
                "resourceType": "MedicationPrescription",
                "status": "active",
                "dateWritten": "2013-07-11T03:06:34.000Z",
                "dosageInstruction": [
                    {
                        "route": {
                            "coding": [
                                {
                                    "system": "urn:oid:2.16.840.1.113883.3.26.1.1",
                                    "code": "C38288",
                                    "display": "ORAL"
                                }
                            ],
                            "text": "ORAL"
                        },
                        "timingPeriod": {
                            "start": "2013-07-11T03:06:34.000Z"
                        }
                    }
                ],
                "text": {
                    "status": "generated",
                    "div": "81 mg = 1 tab(s), PO, Once Daily, 30 tab(s)"
                },
                "contained": [
                    {
                        "id": "med",
                        "resourceType": "Medication",
                        "name": "Aspirin 81 MG Oral Tablet",
                        "code": {
                            "coding": [
                                {
                                    "system": "http://www.nlm.nih.gov/research/umls/rxnorm",
                                    "code": "243670",
                                    "display": "Aspirin 81 MG Oral Tablet"
                                }
                            ],
                            "text": "Aspirin 81 MG Oral Tablet"
                        }
                    }
                ],
                "medication": {
                    "reference": "#med",
                    "display": "Aspirin 81 MG Oral Tablet"
                },
                "patient": {
                    "reference": "Patient/some-id-here-1987",
                    "display": "DOE, JOE"
                }
            }
        }
    ]
}